time[ms],accX[g],accY[g],accZ[g],Value 1,Value 2,Value 3
40955830,-1.912,-0.526,0.247,291.865,-30.607,-316.627
40955840,-1.274,-0.238,-0.261,290.045,-146.405,-260.347
40955850,-0.779,-0.063,-0.587,269.972,-171.972,-204.995
40955860,-0.543,0.139,-0.88,260.277,-136.377,-153.142
40955870,-0.425,0.418,-1.071,262.937,-72.082,-78.382
40955880,-0.427,0.679,-1.083,237.755,-2.957,2.66
40955890,-0.596,0.708,-0.92,169.435,37.817,67.182
40955900,-0.809,0.471,-0.712,72.87,31.832,120.627
40955910,-0.792,0.126,-0.527,-25.147,2.082,167.772
40955920,-0.485,-0.202,-0.372,-100.8,-30.222,202.02
40955920,-0.145,-0.418,-0.195,-144.252,-59.08,208.145
40955940,0.316,-0.46,-0.065,-160.842,-79.38,185.622
40955940,0.88,-0.407,-0.018,-167.947,-70.98,155.802
40955960,1.307,-0.374,0.056,-175.157,-27.44,121.397
40955960,1.342,-0.355,0.136,-177.24,33.495,64.557
40955980,1.404,-0.636,-0.174,-182.262,75.827,-21.367
40955980,-0.54,-1.344,-0.136,17.57,90.58,-73.202
40956000,-1.981,-1.489,1.998,154,-19.215,-52.097
40956000,-0.22,-1.998,1.261,91.945,39.025,56.315
40956010,0.641,-0.936,-1.971,436.52,-30.66,175.595
40956020,0.332,1.897,1.644,368.462,23.887,125.457
40956030,-1.998,0.059,1.329,217.105,39.322,45.762
40956040,-1.305,-0.328,0.823,255.605,-53.445,27.877
40956050,-0.024,-0.992,1.243,193.62,-54.005,-42.227
40956060,-0.721,0.132,1.401,203.14,-45.08,-107.905
40956070,0.047,0.103,1.383,135.642,-41.72,-114.765
40956080,0.514,-0.614,1.163,51.87,-40.267,-92.382
40956090,0.278,-0.234,1.079,45.045,-37.345,-60.235
40956100,0.275,-0.508,0.838,19.652,-38.377,-27.107
40956110,0.124,-0.674,0.803,13.842,-31.902,-9.275
40956120,0.015,-0.411,1.038,16.345,-17.5,-7.735
40956130,0.113,-0.333,1.204,-10.5,-3.955,-10.15
40956140,0.1,-0.256,1.288,-49.245,10.745,-10.307
40956150,0.103,-0.262,1.324,-97.195,27.387,-10.727
40956160,0.116,-0.305,1.295,-152.967,47.617,-15.732
40956170,0.175,-0.53,1.194,-208.092,71.102,-24.202
40956180,-0.185,-0.286,1.389,-251.65,106.715,-26.705
40956190,-0.751,-0.027,1.466,-327.6,101.237,-64.365
40956200,-0.248,-0.925,1.571,-427.752,77.945,-95.725
40956210,0.695,-1.998,1.597,-516.372,139.212,-35.892
40956220,1.513,-1.998,1.662,-538.597,356.545,91.717
40956230,1.843,-1.998,0.931,-509.582,473.812,57.995
40956240,1.797,-1.998,-0.002,-249.62,454.44,-130.777
40956250,-0.439,-1.998,-0.845,139.352,302.487,-258.597
40956260,-1.609,-1.682,-0.667,457.555,128.275,-356.51
40956260,-1.63,-0.447,-1.429,508.13,-36.505,-417.27
40956280,-1.112,0.505,-1.997,424.305,-122.815,-416.92
40956280,-0.548,1.117,-1.997,330.19,-51.642,-343.787
40956300,-0.842,1.239,-1.868,198.712,56.717,-227.097
40956300,-1.72,0.802,-1.061,16.397,118.055,-118.475
40956320,-1.998,0.217,-0.298,-160.282,96.197,-30.642
40956320,-1.746,-0.382,0.087,-257.022,34.037,53.882
40956330,-1.289,-0.774,0.186,-258.667,-40.547,100.397
40956340,-0.853,-0.748,0.209,-196.507,-85.19,107.835
40956350,-0.582,-0.416,0.24,-135.765,-103.302,106.925
40956360,-0.35,-0.127,0.194,-113.172,-95.357,118.667
40956370,-0.094,-0.048,0.13,-118.125,-66.482,140.21
40956380,0.126,-0.157,0.128,-123.077,-22.54,154.105
40956390,0.184,-0.306,0.189,-114.572,23.59,154.07
40956400,0.061,-0.441,0.122,-97.615,60.952,143.395
40956410,0.485,-0.146,0.014,-76.755,84.42,123.322
40956420,0.999,0.119,0.171,-31.395,135.205,145.88
40956430,0.717,-0.009,0.29,-11.655,183.925,179.357
40956440,-0.02,-0.127,0.446,-23.537,167.387,185.167
40956450,-0.175,0.077,0.749,-51.31,63.507,151.357
40956460,-0.029,0.143,0.854,-97.632,-97.562,104.93
40956470,0.47,-0.059,0.741,-133.367,-248.115,66.85
40956480,1.353,-0.312,0.564,-142.31,-313.74,45.692
40956490,1.942,-0.406,0.265,-100.415,-283.675,-7.315
40956500,-0.923,1.086,-0.554,204.19,-287.945,-15.225
40956510,-1.542,-1.879,0.484,112.577,-345.94,-95.182
40956520,1.996,-1.963,0.59,332.01,-16.73,267.067
40956530,-0.322,0.829,-1.409,492.502,7.787,223.37
40956540,-1.998,1.835,1.998,417.585,72.292,145.757
40956550,-1.885,-0.727,0.591,374.36,-27.615,97.037
40956560,-1.297,-1.119,0.928,347.305,-119.84,-76.457
40956570,-0.352,0.689,1.547,337.89,-84.945,-214.567
40956580,0.414,0.424,1.801,229.215,-29.68,-226.38
40956590,1.199,0.309,1.898,110.722,-17.78,-182.402
40956600,0.911,-0.052,1.55,31.71,-30.835,-86.852
40956610,0.542,-0.235,1.188,-29.837,-41.912,-7.647
40956620,0.085,-0.538,0.947,-68.39,-37.905,30.73
40956630,-0.052,-0.544,1.003,-78.995,-33.005,39.935
40956640,-0.124,-0.406,1.183,-94.062,-27.842,36.785
40956650,-0.219,-0.427,1.187,-131.46,-27.335,26.792
40956660,-0.183,-0.501,1.087,-170.205,-24.185,10.78
40956670,-0.427,-0.55,1.009,-207.637,-16.047,-11.917
40956670,-0.736,-0.381,1.209,-244.65,-24.062,-42.122
40956690,-0.672,-0.588,1.065,-305.62,-58.257,-85.767
40956690,0.444,-1.58,1.128,-382.777,-52.517,-116.252
40956710,0.621,-1.998,1.189,-422.59,2.152,-83.055
40956710,0.89,-1.998,1.555,-389.795,166.617,-9.345
40956730,-0.591,-1.969,0.767,-344.732,293.002,-10.85
40956730,-0.604,-1.944,0.282,-237.842,171.132,-105.927
40956750,-0.029,-1.969,-0.814,-128.152,6.93,-177.94
40956750,-0.55,-1.826,-0.816,107.467,-52.027,-232.872
40956760,-1.975,-0.277,-0.683,206.395,-68.25,-179.935
40956770,-1.953,0.749,-0.87,207.217,-114.992,-86.24
40956780,-1.252,0.882,-0.933,108.832,-160.072,33.827
40956790,-0.759,0.433,-0.391,-28.787,-175.402,125.475
40956800,-0.52,-0.027,0.055,-121.66,-167.247,169.96
40956810,-0.167,-0.221,0.338,-153.86,-151.112,185.377
40956820,0.094,-0.443,0.454,-165.847,-123.305,184.467
40956830,0.182,-0.46,0.477,-147.927,-91.28,166.967
40956840,0.13,-0.355,0.464,-113.347,-57.732,145.635
40956850,0,-0.131,0.42,-80.36,-32.725,122.71
40956860,-0.058,0.07,0.402,-56.21,-18.007,100.625
40956870,-0.1,0.184,0.416,-44.415,-9.887,83.982
40956880,-0.176,0.204,0.538,-35.385,-5.512,68.285
40956890,-0.255,0.509,0.479,-51.03,-13.125,53.602
40956900,-0.353,0.062,0.58,-22.977,-19.25,46.917
40956910,-0.284,0.208,0.633,26.565,-28.787,38.885
40956920,-0.263,0.08,0.512,58.117,-40.95,50.155
40956930,-0.184,-0.136,0.329,94.692,-44.38,66.097
40956940,-0.058,-0.359,0.113,155.347,-44.362,87.307
40956950,0.186,-0.389,-0.121,225.977,-39.812,108.22
40956960,0.417,-0.334,-0.574,254.572,-43.26,123.917
40956970,0.74,0.002,-1.084,243.862,-62.65,127.207
40956980,1.167,0.105,-1.58,185.115,-82.775,111.79
40956990,-0.558,-1.386,-1.441,156.73,-155.435,56.665
40957000,0.634,-1.998,1.149,111.212,-459.427,-300.23
40957010,1.376,-1.33,-1.527,377.247,25.2,22.312
40957010,-0.958,1.997,1.172,544.39,153.335,113.925
40957030,-1.786,1.619,0.896,390.775,32.375,90.055
40957030,0.281,-1.957,1.156,309.925,-106.277,88.812
40957050,-1.123,-0.076,1.371,329.84,-73.237,-13.825
40957050,-1.164,1.277,1.977,300.842,-53.462,-64.015
40957070,0.536,-0.658,1.561,99.032,-59.377,-128.415
40957070,0.642,0.339,1.502,41.72,-12.74,-134.295
40957080,0.752,-0.407,1.102,-42.087,17.325,-98.647
40957090,0.67,-0.295,0.978,-66.605,28.087,-56.42
40957100,0.53,-0.503,0.915,-83.195,30.572,-10.64
40957110,0.271,-0.458,0.967,-91.945,39.27,20.702
40957120,-0.041,-0.522,0.982,-105.56,52.622,33.932
40957130,-0.125,-0.455,1.057,-119.822,60.095,30.922
40957140,-0.151,-0.46,1.119,-147.192,69.422,18.427
40957150,-0.19,-0.461,1.195,-180.845,73.237,4.882
40957160,-0.333,-0.203,1.306,-217.07,71.33,-9.17
40957170,-0.259,0.082,1.575,-286.615,61.652,-25.742
40957180,0.524,-0.848,0.791,-384.352,104.562,-44.712
40957190,1.799,-1.987,0.755,-467.74,227.395,-34.037
40957200,1.983,-1.998,0.699,-479.64,421.137,6.825
40957210,-0.263,-1.997,0.24,-427.822,565.74,-1.82
40957220,0.465,-1.998,-0.437,-340.462,573.37,-32.48
40957230,1.86,-1.998,0.291,-178.08,566.475,-153.912
40957240,-1.282,-1.998,0.342,45.5,475.615,-308.857
40957250,-1.998,-1.385,0.539,231.647,257.6,-360.745
40957260,-1.781,-0.414,0.29,286.667,36.365,-350.84
40957270,-1.154,0.005,-0.158,235.865,-115.342,-318.745
40957280,-0.772,0.501,-0.582,195.86,-158.007,-303.782
40957290,-0.951,1.086,-0.608,176.505,-123.06,-283.5
40957300,-1.137,1.465,-0.405,139.037,-54.372,-227.412
40957310,-1.462,1.45,-0.155,60.532,10.675,-135.38
40957320,-1.851,1.104,0.244,-21.437,34.335,-39.025
40957330,-1.664,0.751,0.594,-79.327,13.912,40.11
40957340,-1.144,0.29,0.709,-105.262,-31.762,103.302
40957350,-0.598,-0.094,0.685,-101.535,-75.687,136.815
40957360,-0.193,-0.352,0.624,-74.812,-104.737,149.59
40957370,0.081,-0.574,0.5,-38.745,-129.447,149.415
40957380,0.444,-0.299,0.533,-11.69,-154.822,126.787
40957390,0.49,-0.77,0.149,-8.662,-187.635,99.015
40957400,0.868,-1.117,-0.212,79.1,-182.192,70.245
40957410,0.942,-0.958,-0.469,183.61,-147.017,31.272
40957420,0.817,-0.644,-0.851,250.67,-98.525,5.302
40957420,0.756,-0.289,-1.333,261.555,-42.595,-4.462
40957440,0.647,-0.049,-1.648,230.23,11.27,4.707
40957440,0.459,0.005,-1.782,149.52,35.087,16.275
40957460,0.654,-0.165,-1.754,22.47,16.957,22.33
40957460,1.083,-0.594,-1.541,-97.58,-2.642,27.527
40957480,1.204,-0.961,-1.106,-170.397,-12.075,25.147
40957480,-0.017,-1.873,0.448,-146.037,-82.53,-33.075
40957500,-1.998,-1.998,1.998,222.67,-120.715,59.29
40957500,-1.411,-1.641,-1.401,439.757,-133.332,260.365
40957510,1.941,1.959,0.603,542.57,-45.867,296.397
40957520,-1.72,0.212,1.099,316.925,94.797,123.06
40957530,-1.991,-0.809,0.983,303.047,-19.442,-41.23
40957540,0.622,-0.602,1.339,313.092,-23.415,-137.777
40957550,-1.023,0.488,1.977,267.207,22.102,-234.395
40957560,0.696,0.79,1.93,147.21,26.652,-251.265
40957570,1.179,0.111,1.716,23.187,24.745,-187.092
40957580,1.119,0.246,1.516,-33.005,7.385,-97.055
40957590,0.846,-0.271,0.994,-98.122,-23.747,2.17
40957600,0.35,-0.477,0.689,-108.78,-20.405,60.812
40957610,-0.014,-0.687,0.661,-94.552,-10.832,80.08
40957620,-0.119,-0.722,0.733,-73.36,-11.322,78.015
40957630,-0.218,-0.682,0.809,-62.912,-7.595,59.675
40957640,-0.222,-0.607,0.887,-63.595,0.35,36.82
40957650,-0.096,-0.574,0.949,-74.725,8.855,17.692
40957660,-0.098,-0.523,1.061,-93.292,14.612,5.705
40957670,-0.087,-0.484,1.162,-125.142,17.43,-2.432
40957680,-0.207,-0.557,1.204,-162.452,22.33,-12.775
40957690,-0.394,-0.389,1.373,-200.672,23.747,-25.795
40957700,-0.488,-0.284,1.59,-256.41,4.847,-51.712
40957710,-0.24,-0.655,1.323,-322.805,-6.702,-62.685
40957720,0.337,-1.646,1.461,-387.572,54.32,-14.49
40957730,0.518,-1.998,1.521,-418.932,190.225,47.757
40957740,0.094,-1.998,0.504,-356.702,297.027,80.01
40957750,0.081,-1.998,-0.209,-334.827,212.747,8.207
40957760,-0.154,-1.937,-0.91,-162.82,62.842,-71.89
40957760,0.074,-1.065,-0.201,23.887,13.457,-84.805
40957780,-0.31,-0.702,-0.098,67.76,-26.355,-43.435
40957780,-0.184,-0.385,-0.105,78.225,-67.34,-15.452
40957800,0.119,-0.14,-0.104,72.24,-82.862,-0.7
40957800,0.18,-0.009,-0.049,45.377,-85.015,7.087
40957820,0.122,0.288,0.136,15.242,-85.697,-7.315
40957820,0.166,0.605,0.248,-22.942,-79.1,-38.902
40957830,0.223,0.67,0.283,-55.09,-53.27,-62.212
40957840,0.116,0.749,0.396,-67.375,-4.025,-68.18
40957850,-0.293,0.824,0.457,-65.17,38.465,-66.727
40957860,-0.709,0.82,0.597,-59.027,60.882,-49.402
40957870,-1.018,0.563,0.768,-58.677,53.305,-5.985
40957880,-1.181,0.082,0.883,-55.422,7.262,46.865
40957890,-1.111,-0.513,0.72,-28.332,-70.525,90.737
40957900,-0.652,-0.619,0.787,14.192,-157.815,90.002
40957910,-0.6,-0.853,0.204,63.315,-244.895,86.66
40957920,0.017,-0.942,-0.32,183.75,-273.087,104.632
40957930,0.829,-0.764,-0.987,277.252,-242.935,87.132
40957940,1.401,-0.236,-1.82,332.92,-152.092,54.442
40957950,1.277,0.616,-1.996,302.96,-26.6,24.412
40957960,0.272,0.56,-1.761,180.53,52.255,21.717
40957970,-0.331,-0.299,-1.149,11.865,54.372,26.512
40957980,-0.196,-1.564,-0.153,-102.567,-17.727,21.927
40957990,0.733,-1.998,1.49,85.417,56.385,32.445
40958000,-0.641,-0.851,-1.997,489.44,-116.462,118.632
40958010,0.64,1.997,1.512,541.852,106.487,109.27
40958020,-1.958,1.446,1.675,310.135,-11.445,47.652
40958030,-0.172,-1.076,1.307,187.075,-67.392,49.997
40958040,-0.335,-1.095,1.708,226.555,-52.78,-24.535
40958050,-0.671,1.859,1.998,208.057,-32.532,-93.275
40958060,0.399,0.284,1.861,-64.085,-11.147,-117.705
40958070,0.126,0.122,1.428,-163.397,39.305,-135.887
40958080,0.291,-0.98,0.277,-196.962,42.402,-114.555
40958090,0.601,-1.628,-0.249,-154.857,44.467,-92.277
40958100,0.511,-0.81,0.262,-56.105,57.96,-72.275
40958110,0.448,-0.717,0.434,-18.83,54.197,-32.305
40958120,0.366,-0.651,0.68,13.702,50.347,2.415
40958130,-0.135,-0.48,1.031,27.055,53.48,21.332
40958140,-0.311,-0.333,1.175,10.797,53.147,17.955
40958150,-0.321,-0.379,1.153,-18.62,53.34,0.28
40958160,-0.095,-0.334,1.314,-53.34,56.84,-20.93
40958160,0.07,-0.137,1.439,-104.685,67.322,-35.805
40958170,0.08,-0.127,1.413,-172.935,77.56,-36.207
40958180,0.006,-0.453,1.234,-239.785,86.397,-36.435
40958190,-0.451,-0.066,1.104,-273.612,89.512,-32.812
40958200,-0.394,-0.4,1.051,-351.855,92.697,-50.12
40958210,-0.24,-1.255,0.96,-411.792,108.377,-67.252
40958220,0.69,-1.601,1.271,-425.372,174.02,-49.857
40958230,0.685,-1.997,1.197,-436.905,342.825,41.02
40958240,0.698,-1.974,0.165,-435.96,524.667,98.35
40958250,0.454,-1.995,0.328,-350.91,541.362,29.715
40958260,0.469,-1.997,0.296,-221.9,478.17,-22.942
40958270,-0.159,-1.91,0.468,-42.56,367.22,-91.595
40958280,-0.647,-1.131,0.7,138.932,243.355,-159.075
40958290,-0.618,-0.363,0.56,205.625,100.135,-182.822
40958300,-0.403,-0.053,0.434,187.53,-8.015,-175.245
40958310,-0.249,0.149,0.285,161.227,-56.997,-154.945
40958320,-0.261,0.392,0.239,146.877,-61.057,-145.582
40958330,-0.354,0.558,0.256,139.037,-50.785,-145.705
40958340,-0.501,0.697,0.33,129.395,-38.797,-140.892
40958350,-0.659,0.665,0.381,113.715,-31.185,-123.007
40958360,-0.861,0.504,0.44,97.3,-34.492,-94.22
40958370,-1.021,0.24,0.439,82.757,-61.092,-63.35
40958380,-0.851,-0.024,0.348,84.77,-103.32,-40.162
40958390,-0.793,0.012,0.233,104.65,-151.077,-17.132
40958400,-0.668,-0.029,0.034,104.597,-193.725,28.857
40958410,-0.319,-0.294,-0.279,98.472,-224.122,62.37
40958420,-0.063,-0.428,-0.476,108.517,-237.09,89.792
40958430,0.087,-0.561,-0.621,110.25,-237.895,111.702
40958440,0.245,-0.681,-0.73,101.517,-233.292,125.177
40958450,0.437,-0.797,-0.937,89.092,-221.27,126.84
40958460,0.704,-0.77,-1.102,80.08,-200.585,111.842
40958470,0.82,-0.708,-1.262,54.39,-168.192,86.415
40958480,0.763,-0.757,-1.551,13.527,-128.555,47.005
40958490,0.161,-1.974,-0.515,38.675,-155.855,-27.86
40958500,0.218,-1.998,1.998,188.562,-51.835,-2.257
40958510,-1.103,-1.998,-0.596,239.732,255.447,248.937
40958510,0.789,0.77,-0.51,513.24,-91.875,85.505
40958530,-0.452,1.957,1.998,437.027,151.532,-18.812
40958530,-1.958,-0.506,1.652,163.642,102.742,-95.742
40958550,-0.541,-1.935,0.468,158.322,17.972,-111.667
40958550,0.823,-0.317,1.572,186.025,43.47,-96.46
40958570,0.093,0.758,1.858,150.36,46.497,-138.337
40958570,0.56,-0.181,1.392,36.575,26.897,-115.885
40958580,0.506,-0.36,1.144,-13.842,1.19,-29.522
40958590,0.372,-0.317,1.05,-26.565,-13.545,15.837
40958600,-0.126,-0.601,0.787,-48.772,-20.895,37.047
40958610,-0.299,-0.667,0.663,-37.467,-26.775,37.485
40958620,-0.273,-0.797,0.622,-19.512,-25.007,15.295
40958630,-0.17,-0.693,0.661,6.58,-19.11,-12.215
40958640,0.048,-0.551,0.759,25.375,-14.455,-25.252
40958650,0.214,-0.472,0.874,28.455,-11.882,-22.295
40958660,0.262,-0.39,0.979,24.29,-8.942,-8.172
40958670,0.236,-0.366,1.035,11.847,-7.367,8.137
40958680,0.1,-0.33,1.083,-6.895,-3.395,21.017
40958690,-0.039,-0.343,1.076,-30.345,-0.91,27.002
40958700,-0.01,-0.409,1.094,-55.142,2.555,25.882
40958710,-0.01,-0.353,1.121,-75.215,5.162,19.267
40958720,0.049,-0.349,1.128,-100.905,6.685,19.11
40958730,0.118,-0.394,1.091,-131.18,7.192,22.557
40958740,0.114,-0.453,1.072,-158.427,9.625,23.292
40958750,0.162,-0.6,0.998,-180.722,15.417,21.315
40958760,-0.024,-0.413,1.141,-200.165,22.96,23.362
40958770,-0.159,-0.507,1.162,-238.21,15.592,6.702
40958780,-0.185,-0.798,0.966,-272.23,3.167,-2.782
40958790,0.141,-1.247,1.1,-309.05,5.81,-2.625
40958800,-0.05,-1.375,1.181,-294.332,33.25,23.345
40958810,0.169,-1.237,1.108,-272.597,81.34,60.147
40958820,-0.03,-1.318,0.876,-291.62,127.085,102.865
40958830,-0.3,-1.548,1.137,-314.335,98.367,101.237
40958830,-0.995,-1.992,0.561,-238.892,-2.782,49.612
40958850,-1.171,-1.998,0.168,-33.827,-102.602,16.012
40958850,-0.598,-1.725,-0.108,179.847,-148.732,19.355
40958870,-0.411,-1.246,-0.429,300.72,-150.412,42.56
40958870,-0.311,-0.78,-0.715,345.415,-145.722,84.525
40958890,0.033,-0.344,-1.193,352.782,-126.63,130.182
40958890,0.241,0.117,-1.586,340.007,-94.255,173.827
40958910,0.554,0.508,-1.46,273.507,-82.302,193.042
40958910,0.636,0.604,-0.993,136.605,-98.577,188.982
40958920,0.51,0.046,-0.481,-24.377,-127.89,174.23
40958930,0.413,-0.823,0.063,-130.795,-169.19,148.19
40958940,0.599,-1.447,0.356,-130.83,-203.07,104.265
40958950,0.9,-1.235,0.511,-51.345,-208.127,57.505
40958960,0.963,-0.634,0.464,8.96,-176.505,27.072
40958970,0.706,-0.321,0.207,18.83,-133.595,5.495
40958980,0.234,-0.21,0.027,11.41,-108.342,-25.27
40958990,-0.156,-0.001,-0.127,2.59,-112.262,-58.87
40959000,-0.235,0.289,-0.178,-19.757,-110.215,-63.035
40959010,-0.335,0.398,-0.153,-67.515,-100.66,-39.602
40959020,-0.487,0.318,-0.188,-116.165,-89.845,-7.542
40959030,-0.496,0.269,-0.215,-140.35,-82.687,24.045
40959040,0.538,0.033,-0.284,-169.032,-69.912,3.832
40959050,1.506,-1.816,1.998,110.512,105.945,76.947
40959060,-0.897,-1.998,1.61,259.682,352.887,182.385
40959070,-0.87,-1.644,-1.997,395.115,-170.677,-2.082
40959080,1.516,1.954,1.495,550.707,104.79,12.407
40959090,-1.733,1.134,1.585,408.38,65.975,-1.96
40959100,-0.796,-0.229,1.737,291.217,-9.327,-63.245
40959110,-0.178,0.085,1.952,242.882,-16.835,-85.907
40959120,-0.007,1.269,1.998,155.575,-23.87,-120.032
40959130,0.288,-0.019,1.555,-29.82,-22.575,-88.865
40959140,0.086,-0.298,1.035,-87.29,-18.06,-69.492
40959150,0.207,-0.845,0.494,-100.642,-21.98,-54.075
40959160,0.155,-0.692,0.633,-60.147,-16.065,-47.565
40959170,0.366,-0.436,0.97,-43.102,-4.287,-38.115
40959180,0.358,-0.19,1.129,-60.427,3.99,-27.037
40959190,0.299,-0.205,1.18,-93.695,11.69,-4.585
40959200,0.171,-0.332,1.141,-128.362,20.387,8.12
40959210,0.125,-0.362,1.153,-159.407,33.162,4.847
40959220,0.524,-0.315,1.485,-204.855,58.257,-3.185
40959230,-0.71,-0.652,0.895,-278.197,110.355,-13.527
40959240,-0.494,-0.587,1.284,-321.79,85.102,-85.207
40959250,-0.323,-0.515,1.229,-365.592,78.627,-131.617
40959260,-0.092,-1.07,1.243,-402.745,111.16,-147.402
40959260,0.239,-1.843,1.395,-407.172,178.745,-130.2
40959280,0.526,-1.933,1.25,-392.332,274.05,-85.89
40959280,0.255,-1.854,0.91,-391.667,335.58,-81.305
40959300,0.508,-1.998,0.563,-352.24,335.055,-125.772
40959300,0.491,-1.998,0.268,-233.065,317.502,-145.005
40959320,-1.708,-1.998,0.068,16.52,268.555,-230.737
40959320,-1.998,-1.24,0.003,244.335,187.39,-264.372
40959330,-1.757,-0.153,-0.152,367.727,91.455,-185.99
40959340,-1.289,0.341,-0.37,362.25,18.042,-50.347
40959350,-1.181,0.53,-0.499,298.025,-49.805,67.69
40959360,-1.156,0.486,-0.434,201.757,-124.775,147.7
40959370,-0.924,0.339,-0.448,115.062,-197.925,201.967
40959380,-0.362,0.288,-0.394,51.537,-245.175,250.512
40959390,0.139,0.25,-0.259,-3.22,-256.567,290.745
40959400,0.262,0.026,-0.143,-52.43,-251.247,307.457
40959410,0.486,-0.123,-0.09,-71.067,-236.11,310.467
40959420,1.033,-0.084,0.084,-65.485,-205.222,307.527
40959430,1.328,-0.047,0.222,-62.825,-168.49,289.957
40959440,1.384,0.022,0.365,-52.325,-126.717,244.895
40959450,1.25,0.025,0.592,-35.682,-90.545,185.972
40959460,0.952,-0.171,0.79,-24.797,-73.71,120.925
40959470,0.708,-0.467,0.836,-1.627,-71.207,61.565
40959480,0.517,-0.563,0.643,51.205,-74.882,17.57
40959490,0.3,-0.343,0.256,117.932,-78.855,-12.845
40959500,0.034,0,-0.161,168.7,-82.635,-31.237
40959510,-0.201,0.265,-0.676,180.757,-83.492,-32.515
40959520,-0.4,0.51,-1.058,156.415,-81.427,-14.682
40959530,-0.554,0.408,-0.887,100.94,-74.287,24.587
40959540,-0.552,0.52,-1.122,-11.777,-88.637,56.577
40959550,-1.111,-0.44,-1.263,-95.847,-109.585,132.895
40959560,-0.163,-1.998,1.344,-129.132,-200.917,98.14
40959570,-0.283,-1.998,-1.065,98.84,-50.137,136.832
40959580,1.485,1.555,0.455,530.635,6.562,52.552
40959580,-1.662,1.997,1.196,356.982,129.36,103.372
40959600,-1.643,0.391,1.645,65.87,-45.272,44.94
40959600,0.292,-1.86,1.399,-19.32,-17.01,-40.407
40959620,-1.038,0.069,1.702,110.355,8.05,-128.905
40959620,-0.111,0.767,1.578,-21.35,6.125,-173.285
40959640,0.409,-1.04,0.694,-147.875,-26.512,-130.83
40959640,0.535,-0.994,0.241,-85.487,-46.83,-78.085
40959660,0.384,-1.034,0.05,-32.042,-46.025,-46.987
40959660,0.187,-0.967,0.174,27.527,-30.047,-30.887
40959670,0.29,-0.903,0.478,77.735,-10.937,-25.725
40959680,0.158,-0.233,1.018,105.752,2.87,-31.01
40959690,0.271,-0.056,1.392,88.095,5.46,-15.627
40959700,0.327,-0.021,1.51,33.495,5.67,3.622
40959710,0.397,-0.147,1.419,-30.135,9.905,23.135
40959720,0.189,-0.084,1.587,-92.627,25.375,34.545
40959730,0.106,-0.08,1.586,-161.35,33.18,40.162
40959740,0.142,-0.193,1.531,-233.135,36.75,38.062
40959750,0.04,-0.538,1.023,-298.515,48.702,25.847
40959760,-0.427,-0.517,1.12,-304.272,47.862,2.065
40959770,-0.226,-0.55,0.949,-348.005,38.325,-19.075
40959780,-0.051,-1.18,0.916,-375.392,47.477,-31.465
40959790,0.155,-1.55,1.169,-366.117,87.08,-7.07
40959800,0.424,-1.34,1.174,-343.49,165.952,40.18
40959810,1.263,-1.866,1.476,-364.245,229.285,68.46
40959820,0.493,-1.998,1.288,-329.84,233.747,0.507
40959830,0.01,-1.998,0.826,-173.915,183.452,-64.312
40959840,0.126,-1.998,0.649,70.875,116.795,-105.892
40959850,0.053,-1.797,0.511,280.35,104.807,-156.747
40959860,-0.426,-1.331,-0.037,389.042,74.637,-159.39
40959870,-0.94,-1.036,-0.569,445.777,17.29,-140.507
40959880,-1.277,-0.717,-1.099,482.527,-59.377,-126.49
40959890,-0.936,-0.282,-1.637,479.762,-109.165,-124.81
40959900,-0.267,0.252,-1.713,441.052,-109.707,-109.69
40959910,-0.153,0.602,-1.653,372.102,-78.802,-61.46
40959920,-0.5,0.659,-1.547,283.867,-48.51,-7.035
40959930,-0.708,0.633,-1.21,177.52,-37.187,34.44
40959940,-0.627,0.61,-0.585,49.315,-41.16,80.552
40959950,-0.621,0.152,-0.082,-78.33,-52.902,135.012
40959960,-0.664,-0.652,0.216,-151.83,-71.785,179.165
40959970,-0.627,-1.114,0.25,-136.027,-93.765,202.037
40959980,-0.348,-0.827,-0.031,-65.695,-114.047,211.33
40959990,0.722,-0.182,-0.22,-20.352,-84.21,241.78
40960000,1.14,-0.097,-0.174,-48.387,-20.177,276.535
40960010,0.865,-0.465,-0.25,-90.877,8.487,247.397
40960010,0.785,-0.417,-0.125,-104.037,8.977,183.767
40960030,0.724,-0.203,0.085,-129.08,-6.317,130.007
40960030,0.685,-0.26,0.06,-174.475,-38.71,74.672
40960050,0.796,-0.313,-0.117,-208.985,-69.545,20.667
40960050,0.811,-0.164,-0.358,-211.155,-85.137,-19.267
40960070,0.69,-1.779,1.563,-159.635,-21.787,-58.66
40960070,-1.998,-1.998,0.008,233.852,169.382,150.64
40960080,0.642,0.556,0.115,521.272,-170.905,63.7
40960090,-0.139,1.497,1.551,432.845,34.422,59.43
40960100,-1.941,-0.035,1.648,303.082,-56.98,-66.587
40960110,0.077,-0.363,1.846,239.732,-67.462,-128.87
40960120,-0.188,0.846,1.997,174.3,-47.232,-189.227
40960130,0.476,0.197,1.533,18.882,-21.28,-170.502
40960140,0.299,-0.453,1.025,-53.725,8.942,-145.355
40960150,0.495,-0.484,0.797,-65.082,16.695,-125.072
40960160,0.646,-0.353,0.976,-65.922,25.007,-100.677
40960170,0.616,-0.037,1.252,-79.257,30.905,-61.215
40960180,0.514,-0.136,1.285,-124.705,30.765,-23.205
40960190,0.284,-0.187,1.219,-168.84,30.135,8.68
40960200,0.2,-0.386,1.143,-211.26,35.525,21.857
40960210,-0.016,-0.5,1.209,-247.52,61.215,16.275
40960220,-0.494,-0.694,1.011,-281.802,73.727,-13.615
40960230,-0.747,-0.55,1.299,-313.845,43.085,-59.29
40960240,0.077,-0.964,1.233,-380.572,19.302,-98.682
40960250,0.731,-1.677,1.178,-417.655,93.222,-56.892
40960260,1.004,-1.998,1.625,-443.957,283.657,13.16
40960270,0.422,-1.998,1.569,-395.885,346.115,-42.577
40960280,1.812,-1.998,1.26,-325.097,244.965,-167.405
40960290,1.65,-1.998,0.292,-25.987,245.822,-249.007
40960300,-1.203,-1.921,-0.561,335.562,209.912,-367.692
40960310,-1.998,-0.749,-1.066,498.89,41.527,-384.265
40960320,-1.994,0.076,-1.491,455.297,-122.64,-329.525
40960330,-1.298,0.459,-1.712,333.707,-187.74,-225.225
40960330,-0.628,0.592,-1.442,188.807,-167.072,-105.665
40960350,-0.984,0.342,-1.172,82.617,-135.31,-0.98
40960350,-1.27,0.132,-0.776,29.767,-141.715,72.712
40960370,-0.853,0.036,-0.397,-12.092,-170.957,131.11
40960370,-0.253,-0.126,-0.132,-47.39,-196,194.022
40960390,0.019,-0.45,0.102,-60.585,-206.797,247.1
40960390,0.23,-0.673,0.149,-41.265,-212.73,277.987
40960410,0.668,-0.532,0.119,-1.4,-201.285,295.102
40960410,0.923,-0.295,0.015,29.382,-188.195,288.75
40960420,1.161,-0.035,-0.118,38.307,-166.862,255.097
40960430,1.333,0.186,-0.039,22.68,-126.332,214.305
40960440,1.223,0.145,0.164,-15.05,-79.922,167.895
40960450,0.903,-0.109,0.312,-47.67,-52.22,114.1
40960460,0.583,-0.219,0.367,-51.8,-42.875,66.15
40960470,0.245,-0.11,0.271,-35.77,-50.837,32.952
40960480,0.086,0.112,-0.024,-18.76,-65.94,20.685
40960490,0.169,0.394,-0.31,-19.705,-68.512,33.18
40960500,0.253,0.53,-0.364,-45.675,-59.885,56.402
40960510,0.64,0.643,-0.684,-127.802,-50.207,57.487
40960520,0.406,0.142,-0.594,-81.077,-21.297,73.045
40960530,1.356,-0.682,1.425,66.517,-3.57,22.907
40960540,-0.094,-1.998,0.53,21.455,347.235,319.97
40960550,-0.491,-0.484,-1.983,450.275,-179.952,192.902
40960560,0.987,1.997,1.868,549.167,239.032,153.895
40960570,-1.998,-0.315,1.905,310.275,24.78,116.55
40960580,-0.092,-1.254,1.641,300.44,-58.537,4.322
40960590,-1.479,1.726,1.998,428.767,-30.887,-124.967
40960600,0.427,0.5,1.89,161.945,-60.34,-208.967
40960610,0.587,0.139,1.52,7.91,-6.842,-210.927
40960620,0.662,-0.123,1.196,-55.877,27.982,-173.477
40960630,0.841,-0.412,1.091,-103.425,32.515,-117.075
40960640,0.817,0.046,1.367,-122.657,37.467,-70.14
40960650,0.594,0.02,1.494,-184.38,37.677,-16.082
40960660,0.32,-0.121,1.393,-242.987,35.77,16.957
40960670,0.219,-0.283,1.184,-294.315,48.685,22.645
40960680,-0.229,-0.752,0.835,-341.25,82.25,-0.192
40960690,-0.729,-0.546,1.257,-364.297,71.82,-58.187
40960700,-0.03,-0.617,1.312,-443.467,46.83,-109.935
40960710,1.749,-1.825,1.145,-531.527,161.157,-66.185
40960720,1.998,-1.998,0.879,-569.345,465.955,34.265
40960730,1.998,-1.998,0.63,-512.137,572.845,-70.822
40960740,1.843,-1.998,-0.252,-336.385,572.705,-178.43
40960750,-1.373,-1.998,-1.306,85.365,473.655,-330.662
40960760,-1.998,-1.739,-1.218,464.292,169.645,-424.112
40960760,-1.998,0.123,-1.214,570.185,-80.762,-446.092
40960780,-1.928,0.966,-1.784,503.23,-209.195,-379.05
40960780,-1.501,1.228,-1.819,352.1,-196.84,-227.132
40960800,-1.506,1.348,-1.579,184.73,-131.215,-51.03
40960800,-1.467,1.245,-1.073,40.092,-58.887,102.095
40960810,-1.389,0.901,-0.452,-92.75,-57.522,203.017
40960820,-1.271,0.432,-0.209,-208.425,-124.775,272.387
40960830,-0.567,-0.044,-0.178,-277.252,-184.782,326.06
40960840,-0.032,-0.381,-0.095,-277.375,-214.025,350.28
40960850,0.367,-0.333,0.025,-238.472,-225.365,345.87
40960860,0.744,-0.315,0.155,-183.837,-221.077,328.002
40960870,1.144,-0.213,0.267,-164.605,-201.232,296.17
40960880,1.12,-0.252,0.399,-160.002,-173.722,254.38
40960890,0.935,-0.344,0.533,-139.037,-140.7,195.702
40960900,0.598,-0.481,0.696,-102.795,-113.75,143.78
40960910,0.292,-0.554,0.827,-77.717,-117.04,92.89
40960920,0.134,-0.722,0.849,-42.7,-140.997,47.25
40960930,0.163,-0.78,0.799,21.525,-157.36,12.075
40960940,0.139,-0.72,0.633,88.497,-163.17,-15.33
40960950,0.094,-0.554,0.465,158.532,-162.05,-38.762
40960960,0.015,-0.319,0.122,209.247,-160.44,-46.392
40960970,0.02,-0.038,-0.389,253.207,-150.377,-46.917
40960980,0.178,0.509,-0.753,281.645,-128.38,-54.617
40960990,0.284,0.855,-0.825,249.655,-93.38,-46.9
40961000,0.082,0.569,-0.595,136.325,-55.807,-21.157
40961010,-0.451,-0.944,-0.737,34.387,-53.952,-9.992
40961020,0.154,-1.945,1.934,88.112,-186.007,-16.292
40961030,-0.275,-1.998,-0.78,117.582,158.707,256.427
40961040,1.484,1.364,-0.125,545.44,-79.922,-28.437
40961050,-1.788,1.997,1.732,451.377,174.58,33.582
40961060,-1.053,-1.182,1.356,154.56,-51.852,98.875
40961070,0.634,-1.055,1.076,308.245,-49.087,16.222
40961080,-1.569,1.972,1.998,440.79,-6.212,-83.492
40961080,0.42,-0.886,1.716,69.947,-66.167,-85.085
40961100,0.318,1.15,1.938,14.175,-49.962,-105.717
40961100,0.133,-0.461,1.118,-109.655,-51.345,-61.302
40961120,0.036,-0.702,0.53,-130.83,-38.08,-60.182
40961120,0.536,-0.915,0.338,-95.69,-11.06,-76.667
40961140,0.542,-0.704,0.637,-64.942,6.422,-69.317
40961140,0.57,-0.228,0.999,-51.485,25.235,-50.662
40961160,0.622,-0.231,1.111,-74.55,26.932,-8.907
40961160,0.316,-0.214,1.189,-99.207,31.99,27.3
40961170,0.158,-0.345,1.13,-135.625,35.297,43.662
40961180,0.008,-0.362,1.227,-164.99,42.472,37.712
40961190,-0.058,-0.437,1.349,-200.69,44.467,24.482
40961200,-0.36,-0.402,1.252,-234.622,31.395,6.335
40961210,-0.247,-0.649,1.01,-294.98,6.79,-33.075
40961220,-0.69,-0.67,1.145,-334.092,-14.822,-70.192
40961230,-0.657,-0.777,1.235,-346.692,-34.912,-100.485
40961240,-0.028,-1.379,0.888,-348.302,-19.18,-99.277
40961250,0.682,-1.642,0.937,-336,67.427,-75.092
40961260,0.582,-1.744,0.949,-327.057,180.687,-53.55
40961270,0.12,-1.804,0.919,-297.29,275.135,-51.765
40961280,0.181,-1.57,0.745,-257.32,300.685,-94.762
40961290,0.089,-1.989,0.155,-177.52,274.067,-104.457
40961300,0.368,-1.443,-0.049,-20.037,272.212,-77.787
40961310,-0.104,-0.797,0.183,145.897,269.465,-74.672
40961320,-0.692,-0.406,0.255,182.542,220.535,-48.632
40961330,-0.934,-0.251,0.216,174.562,135.835,-9.1
40961340,-0.811,-0.167,0.054,170.87,34.93,43.172
40961350,-0.489,0.002,-0.1,163.765,-59.902,78.172
40961360,-0.209,0.162,-0.158,136.972,-139.947,87.832
40961370,-0.002,0.184,-0.129,93.187,-192.797,93.94
40961380,0.193,0.139,-0.124,54.862,-210.157,113.452
40961390,0.37,0.047,-0.062,30.45,-198.607,126.647
40961400,0.408,-0.056,-0.006,25.34,-178.465,125.86
40961410,0.338,-0.104,0.134,34.93,-156.432,118.072
40961420,0.34,-0.13,0.233,46.917,-137.935,106.032
40961430,0.289,-0.179,0.243,60.952,-124.442,94.36
40961440,0.236,-0.145,0.189,78.82,-120.155,78.592
40961450,0.216,0.009,0.073,95.077,-116.392,64.015
40961460,0.2,0.166,-0.03,100.642,-114.187,53.935
40961470,0.175,0.234,-0.255,92.347,-106.452,50.015
40961480,0.06,0.418,-0.457,82.18,-101.342,47.705
40961480,-0.037,0.635,-0.424,63.262,-104.23,42.21
40961500,-0.148,1.257,-0.561,-13.37,-114.257,35.122
40961500,-0.137,0.842,-0.285,-57.977,-101.342,53.217
40961510,-0.507,-0.541,-0.125,34.072,-153.457,18.882
40961520,0.284,-1.998,0.024,-39.427,66.5,289.73
40961530,1.007,0.496,-0.561,337.155,22.242,58.45
40961540,-0.76,1.997,1.998,516.407,212.555,160.982
40961550,-1.264,-0.817,1.055,136.272,-46.497,58.327
40961560,0.072,-1.319,0.697,269.465,-32.865,-1.837
40961570,-0.655,1.954,1.998,494.777,-37.502,-141.89
40961580,1.795,-0.006,1.632,101.465,-88.585,-103.6
40961590,0.727,1.229,1.782,17.15,-19.46,-52.08
40961600,-0.407,-0.466,1.19,-115.325,9.467,1.382
40961610,-0.55,-0.727,1.062,-136.622,20.072,-37.45
40961620,0.032,-0.307,1.364,-156.835,29.102,-69.405
40961630,0.251,-0.022,1.504,-203.735,38.115,-69.86
40961640,0.409,-0.103,1.36,-262.972,37.03,-52.955
40961650,0.753,-0.342,1.1,-312.62,46.182,-18.13
40961660,0.162,-0.639,0.966,-334.582,67.13,8.225
40961670,-0.182,-0.23,1.192,-339.762,45.727,-11.357
40961680,0.301,-0.663,1.401,-424.69,37.135,-34.527
40961690,0.96,-1.72,1.379,-497.262,104.72,-11.357
40961700,1.157,-1.998,0.896,-496.457,281.697,51.047
40961710,1.925,-1.998,1.091,-437.08,391.282,16.152
40961720,0.542,-1.998,-0.179,-313.25,268.45,-76.23
40961730,-0.101,-1.998,-0.264,-106.33,92.312,-156.047
40961740,-0.527,-1.664,-0.201,92.347,-52.01,-230.737
40961750,-0.692,-0.529,-0.095,154.245,-138.775,-254.082
40961760,-0.827,-0.022,-0.238,125.947,-155.767,-240.8
40961770,-0.821,0.451,-0.269,103.022,-107.905,-193.2
40961780,-0.984,0.836,-0.192,80.692,-42.84,-145.74
40961790,-1.02,1.111,0.002,35.84,13.02,-116.375
40961800,-0.986,1.066,0.187,-16.642,55.58,-85.312
40961810,-1.074,0.829,0.355,-43.382,80.22,-50.61
40961820,-1.116,0.585,0.557,-48.09,79.047,-26.285
40961830,-1.034,0.395,0.718,-40.67,56.332,-3.92
40961830,-0.808,0.245,0.78,-27.597,25.672,19.635
40961850,-0.526,0.135,0.764,-6.93,4.48,46.13
40961850,-0.303,0.058,0.662,20.107,-7.262,72.292
40961870,-0.144,0.002,0.522,48.002,-9.712,94.622
40961870,-0.012,-0.315,0.368,78.172,-8.452,107.695
40961890,0.16,0.095,0.185,85.207,-2.94,95.795
40961890,-0.064,-0.068,0.022,100.765,-4.025,126.105
40961910,0.054,-0.408,-0.099,125.457,0.087,151.882
40961910,0.197,-0.526,-0.183,152.547,-7.105,158.532
40961920,0.355,-0.267,-0.295,155.872,-25.427,153.422
40961930,0.492,-0.108,-0.388,123.165,-44.73,162.96
40961940,0.709,-0.138,-0.464,57.015,-65.345,173.915
40961950,0.867,-0.238,-0.509,-24.097,-94.57,168.682
40961960,1.119,-0.886,-0.881,-90.422,-138.722,137.322
40961970,-0.063,-1.953,-0.067,8.505,-313.722,53.147
40961980,1.444,-1.998,0.847,2.205,-90.842,204.085
40961990,-0.285,-0.757,-1.955,362.127,-64.032,260.592
40962000,-1.319,1.997,1.8,526.837,-36.977,269.412
40962010,-1.998,0.684,0.991,233.502,-90.632,126.63
40962020,-1.118,-1.962,0.37,64.785,-182.91,19.512
40962030,-0.993,0.032,0.99,404.18,-70.367,-178.867
40962040,-0.407,1.369,1.902,358.172,-37.835,-265.195
40962050,1.272,-0.662,1.456,129.027,-59.045,-222.827
40962060,1.551,0.999,1.781,137.007,-55.335,-128.152
40962070,1.07,0.08,1.342,20.09,-45.482,-4.042
40962080,0.024,-0.29,1.005,-36.837,-25.672,57.995
40962090,-0.327,-0.744,0.786,-59.657,-18.812,65.362
40962100,-0.285,-0.404,1.029,-46.847,-15.785,35.962
40962110,-0.058,-0.24,1.235,-58.31,-12.652,14.192
40962120,0.152,-0.15,1.378,-94.15,-10.692,8.435
40962130,0.234,-0.203,1.352,-142.187,-5.407,16.835
40962140,0.248,-0.272,1.288,-182.945,3.325,26.915
40962150,0.31,-0.332,1.169,-214.287,21.997,32.935
40962160,0.215,-0.441,1.181,-250.337,50.225,36.627
40962170,-0.107,-0.455,1.191,-285.425,72.835,24.867
40962170,-0.558,-0.324,1.363,-300.615,78.12,7.315
40962190,-0.431,-0.637,1.219,-341.582,63.735,0.07
40962190,0.295,-1.536,1.191,-391.86,86.362,16.572
40962210,1.522,-1.996,1.44,-448.682,186.725,52.5
40962210,1.936,-1.998,1.427,-441.21,210.21,17.342
40962230,-0.599,-1.998,0.533,-262.01,153.842,-74.41
40962230,-0.744,-1.998,-0.293,-13.51,5.267,-97.527
40962250,-0.45,-1.959,-0.317,213.482,-161.07,-168.402
40962250,-0.531,-1.107,-0.773,293.527,-231.367,-244.265
40962260,-0.619,-0.212,-0.794,302.785,-231.42,-242.515
40962270,-0.968,0.187,-0.788,277.917,-173.337,-181.492
40962280,-1.449,0.317,-0.87,229.547,-142.152,-113.19
40962290,-1.625,0.604,-0.845,165.392,-136.325,-46.235
40962300,-1.643,0.775,-0.668,97.055,-130.83,44.432
40962310,-1.803,0.715,-0.488,24.797,-142.397,153.597
40962320,-1.649,0.423,-0.376,-43.505,-167.545,253.61
40962330,-0.897,0.059,-0.333,-83.055,-185.01,332.36
40962340,0.136,0.013,-0.208,-82.932,-175.77,373.537
40962350,0.554,0.222,0.102,-69.737,-149.712,385.402
40962360,0.356,0.113,0.235,-77.192,-125.895,384.02
40962370,0.567,-0.252,0.129,-87.762,-108.692,376.845
40962380,1.035,-0.394,0.15,-77.945,-99.382,352.572
40962390,1.183,-0.364,0.151,-67.165,-96.442,298.532
40962400,1.147,-0.359,0.161,-67.445,-101.045,218.102
40962410,1.145,-0.458,0.104,-69.212,-113.872,127.015
40962420,1.182,-0.777,0.106,-70.262,-113.05,50.872
40962430,1.176,-0.655,-0.311,-116.235,-94.972,-6.44
40962440,0.708,-1.608,-0.304,81.427,-58.187,-41.58
40962450,-0.621,-1.15,0.497,280.21,-106.382,-90.545
40962460,-1.615,-1.998,1.998,101.272,-183.977,13.632
40962470,-1.543,-1.851,-1.416,271.477,-209.405,151.025
40962480,1.962,1.884,0.006,556.867,-247.24,74.812
40962490,-0.759,1.169,1.897,258.055,73.185,148.382
40962500,-1.679,-1.26,0.641,89.407,-98.63,36.75
40962510,0.074,-1.843,0.658,202.615,-25.305,-3.5
40962520,-0.768,-0.765,1.249,181.755,13.545,-81.34
40962530,-0.677,0.83,1.633,173.215,18.602,-128.135
40962540,-0.088,-1.006,1.022,61.6,11.777,-152.477
40962550,0.364,-0.217,1.084,72.887,14.98,-158.637
40962560,0.525,-0.184,1.075,56.945,8.54,-130.025
40962570,0.592,-0.24,1.036,38.325,4.48,-90.912
40962580,0.586,-0.271,1.036,21.087,2.012,-50.872
40962580,0.528,-0.147,1.148,0.402,5.285,-15.592
40962600,0.434,-0.168,1.199,-32.235,10.15,15.137
40962600,0.156,-0.242,1.265,-69.387,22.085,33.88
40962620,0.095,-0.243,1.31,-102.812,28.227,42.472
40962620,0.02,-0.252,1.29,-135.87,30.712,44.765
40962640,0.034,-0.37,1.194,-168.087,26.425,43.452
40962640,0.12,-0.5,1.067,-194.302,25.095,41.492
40962660,0.081,-0.548,1.09,-219.205,34.877,40.092
40962660,-0.194,-0.516,1.092,-240.257,40.04,33.162
40962670,-0.348,-0.772,1.014,-260.33,27.335,22.365
40962680,-0.338,-0.824,0.99,-249.41,26.04,18.375
40962690,0.111,-1.056,1.081,-260.995,50.697,15.312
40962700,0.444,-1.596,1.097,-275.1,116.095,24.36
40962710,0.395,-1.954,1.248,-250.845,168.7,19.407
40962720,1.031,-1.998,1.176,-212.555,140.052,-52.167
40962730,1.888,-1.998,0.232,-49.682,116.987,-118.562
40962740,1.577,-1.959,-0.307,208.32,199.15,-170.59
40962750,0.273,-1.344,-1.04,338.87,211.68,-218.382
40962760,-0.064,-0.801,-1.473,321.352,169.802,-206.99
40962770,0.068,-0.391,-1.717,274.925,134.89,-167.51
40962780,0.079,-0.122,-1.546,237.597,99.207,-153.107
40962790,-0.084,-0.071,-1.086,169.172,43.19,-164.027
40962800,-0.445,-0.26,-0.736,60.305,-12.967,-167.457
40962810,-0.597,-0.615,-0.398,-26.39,-49.35,-146.965
40962820,-0.509,-0.793,-0.084,-56.98,-70.21,-112.122
40962830,-0.571,-0.625,0.159,-59.955,-87.377,-67.357
40962840,-0.751,-0.355,0.248,-77.595,-106.54,-15.085
40962850,-0.685,-0.206,0.224,-110.565,-125.002,38.815
40962860,-0.409,-0.214,0.158,-138.932,-143.972,86.432
40962870,-0.209,-0.153,0.034,-152.897,-158.27,115.745
40962880,-0.191,0.345,0.026,-157.92,-178.255,118.702
40962890,0.099,0.955,-0.002,-174.072,-180.477,111.772
40962900,0.535,1.333,-0.017,-203,-150.797,98.945
40962910,0.615,1.391,0.389,-217.787,-106.382,59.57
40962920,0.961,1.729,-0.505,-213.08,-60.287,-72.572
40962920,1.376,-1.013,1.754,152.757,67.55,27.755
40962940,-1.992,-1.998,-0.983,96.582,134.662,328.58
40962940,1.443,1.2,-0.295,547.382,-85.435,69.772
40962960,-0.914,1.887,1.879,490.507,222.04,161.892
40962960,-1.796,-0.905,1.24,325.92,-50.925,-38.762
40962980,0.979,-1.065,1.53,370.107,-8.942,-25.97
40962980,-1.343,1.867,1.998,415.117,-24.377,-143.71
40963000,0.944,0.487,1.98,136.325,-46.252,-133.56
40963000,0.266,0.604,1.928,-30.38,-20.965,-110.792
40963010,0.099,0.187,1.6,-146.895,-13.755,-64.627
40963020,0.07,-0.552,0.804,-226.765,-11.55,-60.13
40963030,0.401,-0.835,0.518,-216.72,13.86,-71.977
40963040,0.401,-0.809,0.68,-195.93,55.667,-70.437
40963050,0.451,-0.366,0.945,-184.66,67.147,-58.572
40963060,0.517,-0.39,0.843,-197.47,59.535,-41.475
40963070,0.346,-0.46,0.784,-196.945,56.525,-27.982
40963080,0.197,-0.534,0.783,-214.445,50.417,-24.587
40963090,-0.053,-0.669,0.722,-235.165,43.4,-37.835
40963100,-0.458,-0.622,0.966,-255.115,37.082,-56.875
40963110,-0.516,-0.806,0.995,-275.117,13.702,-79.38
40963120,-0.06,-1.023,0.956,-279.632,1.12,-81.217
40963130,0.23,-1.092,0.852,-275.065,28,-61.25
40963140,0.004,-1.332,0.856,-265.37,80.692,-37.782
40963150,-0.293,-1.456,0.736,-245.437,112.455,-27.072
40963160,-0.502,-1.11,0.653,-208.775,108.955,-29.085
40963170,-0.398,-0.879,0.623,-165.375,82.6,-38.99
40963180,-0.41,-0.652,0.492,-112.717,55.597,-42.262
40963190,-0.644,-0.485,0.488,-75.32,28.105,-47.495
40963200,-0.454,-0.419,0.649,-42.525,4.882,-42.28
40963210,0.286,-0.611,0.846,-0.332,14.717,-24.815
40963220,0.199,-0.61,0.966,79.205,53.585,-20.86
40963230,-0.673,-0.61,0.662,178.22,65.835,-51.012
40963240,-1.084,-0.325,0.504,245.35,23.695,-66.85
40963250,-0.753,-0.113,0.134,281.505,-13.3,-44.835
40963260,-0.432,-0.088,-0.488,310.38,-33.162,13.177
40963270,-0.195,-0.022,-1.114,328.597,-29.032,72.852
40963280,0.366,0.23,-1.379,299.005,-2.572,117.215
40963290,0.563,0.061,-1.196,210.892,28.385,167.86
40963300,0.544,-0.593,-0.841,94.762,32.987,180.407
40963310,0.738,-1.143,-0.702,20.877,7.262,143.815
40963320,1.139,-0.904,-0.72,-21.595,-23.135,80.552
40963330,0.873,-1.675,0.807,-78.032,-54.25,3.85
40963330,0.583,-1.998,1.169,-26.005,-70.402,-117.757
40963350,-0.499,-0.922,-1.463,441.805,-118.335,-50.26
40963350,0.836,1.997,1.949,428.89,104.475,12.512
40963370,-0.901,1.382,1.813,208.057,24.64,-26.075
40963370,-0.324,-1.371,0.836,106.715,-5.267,-68.302
40963390,0.845,-1.203,1.039,150.71,13.125,-42.577
40963390,-0.542,0.878,1.727,194.267,6.93,-49.402
40963410,0.391,-0.299,1.486,57.295,-14.332,-22.592
40963410,-0.192,-0.45,1.189,12.232,-20.912,-7.42
40963420,-0.181,-0.267,1.169,-5.04,-20.317,-14.892
40963430,-0.014,-0.598,0.981,-42.472,-20.352,-25.13
40963440,0.043,-0.386,1.071,-48.58,-15.505,-32.777
40963450,0.203,-0.362,1.105,-71.05,-12.442,-28.437
40963460,0.299,-0.308,1.143,-98.945,-4.935,-21.402
40963470,0.304,-0.269,1.225,-129.307,4.812,-7.857
40963480,0.12,-0.412,1.064,-167.685,20.982,3.447
40963490,0.087,-0.348,1.073,-199.762,20.055,-7.822
40963500,0.01,-0.573,0.973,-244.16,28.175,-23.467
40963510,-0.081,-0.534,1.054,-274.05,38.902,-48.475
40963520,0.024,-0.665,1.17,-335.965,51.555,-80.937
40963530,0.256,-1.16,1.163,-384.37,79.765,-86.012
40963540,0.997,-1.601,0.799,-385.77,174.44,-43.662
40963550,0.986,-1.944,0.65,-382.847,336.857,-0.262
40963560,0.158,-1.736,0.898,-340.322,420.017,-4.725
40963570,-0.044,-1.434,0.896,-274.47,378.857,-70.017
40963580,0.218,-1.967,0.537,-196.577,272.142,-111.09
40963590,0.734,-1.939,0.267,-55.072,197.242,-140.017
40963600,-0.35,-1.489,0.149,133.612,143.762,-214.882
40963610,-1.177,-0.716,0.063,236.6,74.357,-252.105
40963620,-1.51,-0.268,-0.191,268.222,-2.31,-227.885
40963630,-1.357,0.07,-0.489,272.772,-51.905,-171.78
40963640,-1.003,0.569,-0.831,254.747,-82.705,-98.822
40963650,-0.81,0.985,-0.851,203.507,-91.56,-33.845
40963660,-0.771,1.046,-0.659,115.115,-98.787,20.352
40963670,-0.775,0.92,-0.368,12.74,-101.185,83.055
40963670,-0.607,0.488,-0.054,-81.13,-104.16,150.36
40963690,-0.41,-0.133,0.187,-135.957,-122.447,197.767
40963690,-0.251,-0.632,0.431,-128.467,-151.34,217.525
40963710,0.005,-0.659,0.7,-96.67,-178.185,212.065
40963710,0.235,-0.794,0.635,-56.367,-204.172,206.325
40963730,0.418,-0.762,0.538,45.36,-207.742,211.085
40963730,0.741,-0.44,0.337,140.157,-197.137,211.82
40963750,0.859,-0.075,0.1,177.345,-192.902,194.057
40963750,1.099,0.144,-0.138,153.09,-196.507,141.855
40963760,0.909,-0.042,-1.063,108.815,-194.355,72.677
40963770,-0.365,-0.945,0.587,173.32,-324.555,-30.03
40963780,1.074,-1.998,0.091,-65.45,55.755,274.312
40963790,0.128,0.138,-1.171,389.812,-88.847,144.112
40963800,0.064,1.997,1.53,472.727,32.9,101.185
40963810,-1.998,-0.763,1.633,36.12,30.59,155.207
40963820,-0.129,-1.998,-0.896,176.89,-77.84,72.327
40963830,-0.789,0.591,1.278,477.207,1.47,-32.882
40963840,-1.355,1.225,1.899,380.73,-22.435,-128.975
40963850,0.311,-0.899,1.563,190.697,-54.32,-166.127
40963860,0.738,1.162,1.977,210.017,-49.63,-162.347
40963870,1.052,0.148,1.589,62.44,-50.417,-85.155
40963880,0.526,0.217,1.498,-22.505,-40.512,-14.857
40963890,0.142,-0.353,1.162,-91.612,-35.35,28.105
40963900,0.225,-0.339,1.132,-121.747,-21.175,28.035
40963910,0.315,-0.208,1.275,-154.787,5.652,16.94
40963920,0.375,-0.097,1.294,-198.922,28.595,13.195
40963930,0.62,-0.179,1.195,-249.357,49.42,20.842
40963940,0.664,-0.376,1.299,-299.757,83.667,33.285
40963950,-0.326,-0.34,1.019,-324.065,100.1,36.575
40963960,-0.506,-0.326,1.285,-344.172,61.722,4.392
40963970,-0.011,-0.809,0.902,-394.817,24.097,-17.062
40963980,0.812,-1.719,1.014,-447.597,48.37,5.687
40963990,1.452,-1.99,0.967,-448.63,151.077,43.855
40964000,1.26,-1.998,0.919,-394.047,188.23,-41.265
40964010,-1.295,-1.998,0.665,-263.182,254.362,-146.282
40964020,0.65,-1.998,-0.205,-123.935,181.16,-185.552
40964030,-0.419,-1.984,-0.787,119.665,96.057,-292.25
40964040,-1.651,-0.703,-0.513,282.957,58.66,-361.06
40964050,-1.998,0.271,-0.293,271.67,20.107,-322.892
40964060,-1.998,0.431,-0.464,189.35,-7.56,-236.005
40964070,-1.809,0.583,-0.429,131.845,4.812,-136.902
40964080,-1.491,0.622,-0.274,83.737,39.392,-56.647
40964080,-1.492,0.482,-0.101,42.227,79.782,1.592
40964100,-1.432,0.383,0.059,31.552,109.725,51.275
40964100,-1.15,0.374,0.27,34.072,135.607,88.392
40964120,-0.851,0.287,0.429,24.727,154.49,116.847
40964120,-0.557,0.115,0.45,13.37,172.69,146.632
40964130,-0.325,0.012,0.379,27.282,189.087,172.34
40964140,-0.018,0.156,0.334,58.45,198.555,192.395
40964150,0.136,0.273,0.288,74.812,185.255,214.112
40964160,0.05,0.161,0.201,55.177,135.012,230.702
40964170,0.38,-0.117,0.173,14.805,66.447,239.645
40964180,0.858,-0.559,0.116,-32.69,11.742,244.615
40964190,1.081,-0.973,0.057,-62.982,-33.81,226.397
40964200,1.168,-1.065,-0.048,-68.547,-78.487,181.405
40964210,1.454,-0.818,-0.079,-85.067,-113.855,124.547
40964220,1.632,-1.018,-0.111,-91.017,-126.07,74.48
40964230,1.552,-0.964,-0.099,-76.405,-121.677,26.722
40964240,0.324,-1.819,0.323,-63.577,-167.212,-50.907
40964250,-1.935,-1.998,1.998,147.735,-382.917,-101.92
40964260,1.127,-1.928,-1.702,283.762,-250.985,174.965
40964270,0.094,1.552,1.34,530.827,-173.617,178.5
40964280,-1.752,1.36,1.509,323.435,-167.125,35.07
40964290,-1.438,-1.732,0.761,137.9,-165.62,-38.08
40964300,-0.139,-0.737,0.986,280.91,-120.767,-154.122
40964310,-0.486,0.816,1.799,279.195,-69.422,-231.665
40964320,0.947,-0.311,1.467,122.902,-60.042,-225.207
40964330,0.991,0.512,1.6,79.712,-30.38,-175.297
40964340,0.781,-0.028,1.303,2.485,-22.137,-96.705
40964350,0.488,-0.323,1.006,-39.112,-24.605,-34.44
40964360,0.24,-0.467,0.936,-54.705,-24.535,0.035
40964370,0.155,-0.376,1.055,-66.325,-16.257,12.127
40964380,0.132,-0.307,1.161,-84.612,-7.21,17.727
40964390,0.099,-0.296,1.205,-112.665,2.467,22.697
40964400,0.118,-0.27,1.188,-142.292,9.555,24.325
40964410,0.241,-0.365,1.143,-174.457,20.912,26.757
40964420,0.302,-0.44,1.057,-203.91,37.292,27.877
40964420,0.352,-0.528,1.03,-230.51,62.772,24.692
40964440,-0.072,-0.455,1.221,-250.355,79.887,16.327
40964440,-0.361,-0.297,1.305,-286.615,76.282,-3.325
40964460,-0.277,-0.781,1.177,-329.017,79.047,-8.505
40964460,0.328,-1.675,1.04,-351.277,118.282,12.915
40964480,0.396,-1.977,1.127,-347.427,191.415,48.93
40964480,0.561,-1.952,1.085,-308.017,241.01,55.387
40964500,0.175,-1.736,1.056,-265.072,211.925,-8.312
40964500,-0.271,-1.998,0.688,-173.092,130.935,-25.795
40964510,-0.156,-1.996,0.403,-6.475,43.505,-38.885
40964520,-0.574,-1.648,0.051,175,-36.785,-113.802
40964530,-0.889,-1.103,-0.316,277.917,-104.142,-138.232
40964540,-0.75,-0.725,-0.675,321.107,-153.142,-122.097
40964550,-0.271,-0.373,-0.914,340.935,-150.605,-90.387
40964560,0.007,0.098,-1.128,334.355,-121.835,-43.12
40964570,0.022,0.379,-1.21,291.252,-86.152,5.442
40964580,-0.043,0.576,-1.055,204.715,-55.58,47.005
40964590,-0.2,0.475,-0.8,107.082,-36.61,82.005
40964600,-0.23,0.193,-0.516,19.827,-37.24,101.272
40964610,-0.158,-0.118,-0.182,-46.445,-54.687,109.62
40964620,-0.042,-0.395,0.137,-78.207,-75.39,113.767
40964630,0.091,-0.515,0.326,-84.647,-91.262,115.762
40964640,0.263,-0.483,0.36,-81.812,-97.755,114.205
40964650,0.363,-0.408,0.265,-76.51,-94.762,106.767
40964660,0.362,-0.299,0.134,-72.012,-92.522,83.352
40964670,0.339,-0.16,0.031,-75.775,-97.177,43.032
40964680,0.338,-0.069,-0.043,-88.165,-97.335,6.965
40964690,0.288,0.079,-0.156,-100.537,-87.062,-16.502
40964700,0.067,0.519,-0.241,-104.37,-77.017,-32.97
40964710,-0.201,0.918,-0.321,-102.795,-76.947,-49.91
40964720,-0.068,-0.302,0.602,-84.437,-105.91,-102.497
40964730,0.084,-1.908,1.998,157.622,114.345,98.42
40964740,-1.115,-1.874,-1.855,250.337,-1.75,243.127
40964750,1.338,1.927,1.027,570.202,86.1,64.015
40964760,-1.998,1.858,1.75,472.867,98.787,32.515
40964770,0.207,-1.581,1.125,197.61,-65.082,-15.172
40964780,-0.858,0.373,1.785,367.447,-44.922,-120.277
40964780,0.579,1.176,1.963,249.672,-48.142,-166.757
40964800,0.723,-0.167,1.572,-7.63,-30.765,-119.7
40964800,0.395,0.417,1.471,-52.027,-1.4,-78.172
40964820,0.235,-0.789,0.888,-133.787,-5.232,-27.387
40964820,0.175,-0.344,0.861,-118.597,-6.177,-11.077
40964830,0.262,-0.467,1.003,-126.98,-2.887,4.322
40964840,0.336,-0.228,1.165,-142.66,6.702,13.877
40964850,0.289,-0.191,1.172,-175.35,17.745,26.442
40964860,0.317,-0.366,1.13,-213.692,30.712,36.942
40964870,0.169,-0.494,1.123,-240.397,39.602,39.27
40964880,-0.293,-0.335,1.226,-257.215,36.837,35.087
40964890,-0.701,-0.177,1.384,-287.98,25.375,8.907
40964900,-0.512,-0.551,1.165,-354.515,-12.075,-31.36
40964910,0.588,-1.772,1.084,-433.685,1.872,-29.33
40964920,0.816,-1.998,1.527,-450.835,160.387,36.627
40964930,0.65,-1.998,0.618,-372.732,325.307,63.402
40964940,0.341,-1.998,-0.181,-274.12,256.182,-47.547
40964950,-1.384,-1.998,-1.401,-88.655,40.95,-99.067
40964960,-0.169,-1.048,-0.671,124.932,-118.79,-133.35
40964970,-0.017,-0.111,-0.527,126.367,-188.3,-145.512
40964980,-0.401,0.315,-0.368,48.352,-196.035,-123.987
40964990,-0.629,0.409,-0.298,1.977,-154.245,-75.442
40965000,-0.634,0.578,-0.077,-28.437,-105.122,-24.36
40965010,-0.46,0.798,0.197,-67.55,-62.352,7.332
40965020,-0.377,0.975,0.375,-90.965,-15.802,31.167
40965030,-0.355,1.174,0.582,-99.68,30.712,51.957
40965040,-0.38,1.123,0.77,-115.692,66.972,68.057
40965050,-0.405,0.827,0.963,-130.777,89.88,79.502
40965060,-0.372,0.487,1.146,-129.307,96.372,84.787
40965070,-0.351,0.129,1.234,-105.77,89.215,90.737
40965080,-0.131,-0.277,1.218,-71.347,76.72,87.955
40965090,0.206,-0.521,1.099,-78.715,63,64.645
40965100,0.083,-1.004,0.695,80.902,70.612,112.332
40965110,0.201,-0.92,0.334,251.86,84.227,165.847
40965120,0.365,-0.827,-0.074,352.887,82.477,175.49
40965130,0.688,-0.596,-0.644,346.535,53.06,115.78
40965140,0.928,-0.403,-1.028,310.012,0.402,54.915
40965150,1.213,-0.332,-1.071,240.852,-25.182,14.262
40965160,1.287,-0.587,-0.87,147.472,-27.195,-21.997
40965170,-0.251,-1.699,-0.775,74.27,-75.407,-36.435
40965170,-1.985,-1.998,1.793,2.887,-335.545,-30.852
40965190,1.225,-1.996,-0.761,215.95,-180.11,239.925
40965190,0.945,1.513,0.796,545.37,-125.3,250.845
40965210,-1.998,1.585,1.171,361.077,-100.59,91.21
40965210,-1.043,-1.861,0.414,99.26,-177.502,41.79
40965230,-0.266,-0.959,0.431,328.755,-144.777,-77.472
40965230,-1.339,1.237,1.778,431.427,-104.79,-184.922
40965250,0.929,-0.768,1.614,240.8,-128.66,-213.062
40965250,1.981,1.429,1.93,211.75,-98.997,-155.732
40965260,1.246,0.691,1.527,56.49,-50.225,-26.635
40965270,-0.064,-0.084,1.324,-63.577,-13.615,37.922
40965280,-0.043,-0.548,1.037,-113.977,-5.652,29.61
40965290,-0.167,-0.255,1.363,-145.092,30.782,-14.367
40965300,0.173,-0.155,1.495,-193.007,65.835,-45.937
40965310,0.093,-0.016,1.556,-243.985,88.935,-47.46
40965320,0.347,-0.044,1.374,-298.042,93.152,-45.22
40965330,0.351,-0.291,1.111,-353.972,90.982,-31.22
40965340,-0.281,-0.148,1.387,-369.372,65.415,-26.6
40965350,-0.377,-0.025,1.476,-414.855,16.362,-35.752
40965360,0.364,-1.271,1.367,-498.96,13.405,-26.407
40965370,0.847,-1.998,1.252,-527.94,102.252,22.75
40965380,0.242,-1.998,1.025,-426.877,232.89,65.135
40965390,0.037,-1.733,0.72,-342.737,266.35,-20.125
40965400,-0.515,-1.995,0.297,-268.432,141.802,-126.087
40965410,-0.059,-1.662,0.119,-123.462,56.717,-146.93
40965420,-0.666,-0.752,0.333,76.772,32.007,-182.822
40965430,-1.312,0.012,0.393,141.96,-13.23,-183.225
40965440,-1.281,0.342,0.321,116.532,-52.71,-134.032
40965450,-0.797,0.35,0.064,100.31,-54.057,-73.167
40965460,-0.287,0.459,-0.022,103.39,-30.012,-30.502
40965470,-0.029,0.547,-0.011,105.245,24.937,0.42
40965480,0.052,0.585,-0.002,101.29,83.352,17.01
40965490,0.016,0.604,0,98.612,129.447,25.76
40965500,-0.017,0.566,0.085,85.207,155.575,28.665
40965510,-0.049,0.303,0.222,54.232,163.8,30.992
40965510,-0.172,-0.119,0.315,31.64,161.052,44.257
40965530,-0.439,-0.432,0.353,43.452,141.89,62.72
40965530,-0.612,-0.48,0.278,77.787,92.207,75.722
40965550,-0.573,-0.363,0.119,108.01,24.57,86.957
40965550,-0.31,-0.263,-0.095,114.292,-46.375,94.237
40965570,0.122,-0.305,-0.407,95.707,-93.695,97.93
40965570,0.552,-0.318,-0.635,66.797,-104.457,96.46
40965580,0.844,-0.271,-0.546,26.617,-84.42,81.62
40965590,0.814,-0.637,-0.473,-22.032,-58.642,60.427
40965600,0.845,-0.758,-0.398,-48.352,-40.197,26.95
40965610,0.845,-0.986,-0.423,-50.592,-29.4,-8.995
40965620,0.91,-1.092,-0.663,-33.425,-6.965,-52.43
40965630,-0.2,-1.916,0.152,45.36,-21.997,-89.215
40965640,-1.493,-1.998,1.998,162.365,-328.3,-170.012
40965650,1.994,-1.9,-1.009,282.432,-177.625,14.805
40965660,1.496,1.37,1.078,525.665,25.865,67.427
40965670,-1.974,1.997,1.539,423.657,76.825,-40.565
40965680,-1.137,0.538,1.534,335.615,-0.945,-71.172
40965690,0.816,-1.889,0.915,244.947,-24.937,-91.35
40965700,-0.541,1.03,1.799,330.557,3.482,-164.167
40965710,0.859,-0.087,1.565,191.677,-17.202,-132.772
40965720,1.202,0.34,1.626,104.055,-14.49,-74.2
40965730,0.574,0.172,1.402,13.842,3.01,-1.925
40965740,-0.236,-0.339,1.118,-63.525,16.695,32.515
40965750,-0.417,-0.478,0.968,-84.56,18.2,18.182
40965760,-0.065,-0.489,0.928,-85.89,15.487,-5.32
40965770,-0.007,-0.378,1.071,-89.25,24.955,-16.782
40965780,0.106,-0.345,1.129,-109.97,22.977,-10.692
40965790,0.089,-0.347,1.105,-131.757,18.48,0.262
40965800,0.061,-0.379,1.064,-150.412,9.187,11.427
40965810,0,-0.462,1.004,-166.495,2.642,18.357
40965820,-0.057,-0.559,0.949,-179.077,0.84,16.677
40965830,-0.106,-0.628,0.995,-189.735,11.515,8.557
40965840,-0.325,-0.413,1.185,-205.922,27.3,-6.002
40965850,-0.458,-0.449,1.066,-246.085,21.77,-38.412
40965860,-0.168,-0.692,0.903,-288.435,9.152,-63.122
40965870,0.223,-1.255,0.896,-329.56,31.552,-74.042
40965880,0.309,-1.54,1.061,-335.422,88.077,-52.692
40965890,0.635,-1.954,1.076,-327.897,200.2,9.047
40965900,1.201,-1.998,1.172,-345.712,266.892,9.03
40965910,0.021,-1.956,1.216,-283.745,230.142,-66.202
40965920,0.198,-1.998,0.656,-143.237,154.822,-93.257
40965920,0.141,-1.998,-0.06,87.255,68.845,-126.21
40965940,-0.609,-1.758,-0.618,301.35,-23.975,-234.325
40965940,-0.948,-0.736,-1.111,362.022,-108.465,-270.025
40965960,-0.692,0.056,-1.601,361.497,-128.275,-235.375
40965960,-0.392,0.981,-1.872,335.002,-94.85,-167.352
40965980,-0.213,1.506,-1.832,231.945,-59.605,-92.172
40965980,-0.724,1.225,-1.042,39.13,-37.59,2.17
40966000,-1.143,0.204,-0.242,-166.862,-58.957,112.472
40966000,-0.898,-0.955,0.303,-253.05,-120.102,203.297
40966010,-0.37,-1.483,0.534,-197.732,-209.317,227.465
40966020,0.02,-1.176,0.484,-91.332,-295.872,219.642
40966030,0.3,-0.742,0.245,-21.315,-354.48,219.625
40966040,0.787,-0.528,-0.076,6.86,-366.275,228.742
40966050,1.254,-0.28,-0.249,26.74,-334.25,233.782
40966060,1.327,0.004,-0.162,35.455,-281.592,223.667
40966070,1.12,0.063,0.033,11.392,-241.937,197.47
40966080,1.147,0.162,0.337,-34.352,-220.29,158.375
40966090,1.195,0.084,0.188,-101.08,-207.34,111.58
40966100,0.759,0.19,0.378,23.52,-171.64,45.29
40966110,0.226,0.601,0.187,132.02,-162.4,-28.84
40966120,-1.159,0.609,1.904,180.862,-148.242,-37.642
40966130,1.673,-1.998,0.496,146.58,157.675,213.132
40966140,-0.408,-1.792,-1.908,459.007,313.827,393.645
40966150,1.083,1.97,1.05,569.695,237.947,37.345
40966160,-1.998,1.719,1.641,439.897,233.012,144.13
40966170,-0.368,-1.741,1.114,264.512,-30.327,98.175
40966180,-0.61,0.222,1.701,411.967,-47.372,-16.117
40966190,-0.615,1.195,1.998,357.682,-63.087,-102.812
40966200,0.668,0.107,1.887,102.287,-65.73,-126.665
40966210,0.28,1.043,1.913,-13.72,-14.805,-125.65
40966220,0.086,-0.482,1.174,-162.592,-2.835,-85.137
40966230,0.183,-0.651,0.665,-173.25,-7.682,-68.11
40966240,0.546,-0.759,0.521,-149.887,-10.937,-53.112
40966250,0.641,-0.481,0.85,-122.675,2.45,-26.127
40966260,0.534,-0.203,1.023,-127.312,5.792,9.45
40966260,0.343,-0.236,1.087,-148.032,6.737,44.45
40966280,0.124,-0.552,1.135,-172.777,3.447,57.627
40966280,0.031,-0.432,1.075,-178.167,0.717,53.672
40966300,-0.175,-0.445,1.169,-208.547,5.932,35.962
40966300,-0.48,-0.605,0.965,-257.005,2.975,-3.465
40966320,-0.348,-1.119,1.076,-319.357,-2.957,-41.93
40966320,-0.173,-0.988,1.529,-344.872,0.315,-64.925
40966330,0.006,-0.965,1.364,-333.637,27.352,-48.877
40966340,0.369,-1.858,0.762,-325.57,68.6,10.815
40966350,0.477,-1.996,1.045,-299.53,131.022,53.217
40966360,-0.161,-1.913,0.381,-235.777,126.157,19.512
40966370,-0.789,-1.824,-0.033,-159.915,22.68,-1.925
40966380,-0.463,-1.117,0.008,-56.245,-55.86,1.522
40966390,-0.193,-0.433,0.213,0.122,-113.47,-10.955
40966400,-0.349,-0.091,0.294,-2.852,-138.32,18.9
40966410,-0.37,0.121,0.256,-1.82,-138.022,59.412
40966420,-0.138,0.472,0.231,24.605,-125.877,97.702
40966430,0.08,0.736,0.301,29.732,-110.215,119.735
40966440,0.141,0.627,0.264,3.43,-94.587,127.89
40966450,0.196,0.355,0.224,-19.477,-80.43,125.842
40966460,0.207,0.104,0.243,-23.782,-67.357,114.747
40966470,0.165,-0.124,0.277,-12.11,-57.575,100.572
40966480,0.11,-0.278,0.315,13.002,-56.542,80.062
40966490,0.043,-0.343,0.377,42.647,-65.03,55.685
40966500,0.041,-0.437,0.342,72.642,-75.775,32.322
40966510,0.104,-0.463,0.196,111.685,-82.46,12.985
40966520,0.138,-0.306,-0.044,151.935,-85.645,-7.647
40966530,0.227,-0.084,-0.352,181.772,-77.122,-27.107
40966540,0.255,0.138,-0.59,175.385,-63.14,-44.415
40966550,0.081,0.329,-0.702,142.047,-59.325,-52.955
40966560,-0.203,0.261,-0.958,85.207,-73.395,-53.235
40966570,-1.848,-0.413,-0.264,88.2,-265.405,-78.785
40966580,1.02,-1.998,1.53,-44.677,-137.637,138.057
40966590,1.443,-0.783,-1.984,253.855,-14.77,162.312
40966600,0.701,1.997,1.325,542.92,18.742,62.877
40966610,-1.998,-0.038,1.644,235.445,183.907,152.512
40966620,-0.846,-1.998,-0.026,202.247,-38.85,101.027
40966630,-0.32,0.785,1.541,520.012,2.782,8.837
40966640,-1.409,1.3,1.996,386.365,-40.547,-94.045
40966650,0.663,-0.335,1.952,165.567,-67.532,-133.017
40966660,0.771,1.004,1.947,110.495,-41.597,-121.187
40966670,0.319,0.048,1.646,-52.465,-13.632,-63.84
40966670,-0.008,-0.111,1.368,-133.07,-2.537,-38.815
40966690,0.12,-0.499,1.003,-182.91,-0.157,-32.76
40966690,0.254,-0.461,1.021,-192.657,10.552,-39.777
40966710,0.355,-0.409,1.208,-212.012,34.072,-38.85
40966710,-0.038,-0.459,1,-241.045,47.442,-38.325
40966730,0.083,-0.58,0.798,-267.715,42.612,-55.842
40966730,0.134,-0.75,0.81,-286.65,50.242,-76.457
40966750,-0.068,-0.52,0.959,-301.84,47.757,-106.365
40966750,0.093,-0.681,1.08,-349.93,45.675,-132.475
40966760,0.478,-1.118,0.788,-364.997,97.002,-109.217
40966770,1.221,-1.884,0.922,-354.042,234.097,-41.037
40966780,1.544,-1.998,0.717,-368.83,368.445,-22.365
40966790,0.68,-1.866,1.175,-324.817,397.285,-99.942
40966800,0.617,-1.935,1.228,-229.967,399.962,-130.305
40966810,1.256,-1.998,1.203,-115.535,354.217,-138.005
40966820,-1.051,-1.998,0.803,135.24,213.325,-279.107
40966830,-1.998,-1.388,0.234,330.015,53.41,-377.247
40966840,-1.998,-0.385,-0.221,421.12,-53.357,-390.722
40966850,-1.783,0.087,-0.727,435.68,-85.977,-333.41
40966860,-1.176,0.428,-1.62,412.51,-58.135,-259.805
40966870,-0.945,0.749,-1.984,392.7,41.317,-177.24
40966880,-1.211,1.048,-1.801,344.697,150.57,-85.312
40966890,-1.75,0.984,-0.895,209.3,178.535,-7.087
40966900,-1.863,0.316,-0.112,-2.362,126.962,75.74
40966910,-1.26,-0.904,0.269,-137.41,70.962,189.647
40966920,-0.465,-1.745,0.029,-96.495,19.6,258.055
40966930,0.319,-1.104,-0.226,40.25,-2.222,282.8
40966940,0.827,-0.134,-0.198,100.31,-12.285,320.04
40966950,1.034,-0.172,-0.186,34.825,-28.472,346.22
40966960,1.142,-0.8,-0.167,-57.995,-64.067,315.35
40966970,1.458,-1.027,-0.177,-94.972,-101.902,242.69
40966980,1.855,-0.745,0.025,-105.7,-111.93,169.68
40966990,1.911,-0.536,0.207,-142.747,-97.895,97.615
40967000,1.421,-0.259,0.228,-174.09,-80.465,22.452
40967010,1.513,-1.123,1.255,-181.195,-68.932,-45.412
40967010,-1.018,-1.998,1.293,89.355,66.482,-21.84
40967030,-0.835,-1.314,-1.579,489.79,-160.685,81.847
40967030,1.801,0.652,1.616,409.01,-10.115,97.58
40967050,-1.711,0.678,1.398,351.89,-30.485,43.505
40967050,-0.629,-0.569,1.446,269.22,-70.84,-24.99
40967070,-0.624,0.039,1.772,260.365,-76.317,-82.845
40967070,0.675,0.725,1.928,176.522,-74.042,-103.862
40967080,0.623,0.472,1.686,15.855,-42.77,-74.97
40967090,0.123,-0.112,1.368,-88.042,-3.255,-59.01
40967100,0.13,-0.43,1.072,-143.43,16.1,-53.077
40967110,0.219,-0.498,1.027,-156.73,29.82,-50.382
40967120,0.288,-0.381,1.179,-164.5,37.642,-42.385
40967130,0.293,-0.274,1.224,-184.852,40.022,-29.785
40967140,0.259,-0.407,1.016,-217.997,44.782,-14.332
40967150,0.314,-0.517,0.886,-245.7,58.45,-8.067
40967160,0.125,-0.606,0.96,-270.9,76.317,-12.652
40967170,-0.155,-0.602,1.113,-283.307,70.297,-29.96
40967180,0.155,-0.944,0.973,-313.337,72.835,-39.427
40967190,0.421,-1.809,0.902,-354.025,112.717,-10.955
40967200,0.392,-1.998,0.522,-342.265,193.165,15.592
40967210,0.933,-1.998,0.761,-315.35,145.565,-42.7
40967220,1.319,-1.998,-1.118,-235.042,61.915,-97.737
40967230,1.152,-1.998,-0.479,-104.23,17.937,-179.392
40967240,-1.003,-1.828,-0.493,-10.062,-49.28,-248.605
40967250,-1.971,-1.027,-0.176,22.68,-139.247,-221.025
40967260,-1.929,-0.436,-0.217,25.392,-220.955,-137.182
40967270,-1.333,-0.038,-0.441,8.855,-273.752,-42.997
40967280,-0.633,0.124,-0.306,-15.54,-274.75,43.015
40967290,-0.181,0.136,-0.152,-34.72,-230.597,105.437
40967300,-0.02,0.392,0.045,-30.31,-167.79,139.405
40967310,0,0.815,0.208,-34.527,-112.105,146.37
40967320,0.051,0.877,0.317,-68.897,-71.155,140.91
40967330,0.046,0.485,0.443,-104.44,-42.857,130.165
40967340,0.026,0.033,0.522,-116.62,-32.76,110.722
40967350,0.13,-0.303,0.735,-70.017,-25.672,88.007
40967360,0.186,-0.46,0.96,-2.677,-20.51,65.975
40967370,0.19,-0.583,0.974,72.275,-14.857,46.112
40967380,0.189,-0.576,0.892,137.392,-17.482,26.88
40967390,0.275,-0.525,0.693,191.275,-8.225,20.195
40967400,0.281,-0.489,0.363,231.577,4.672,22.33
40967410,0.196,-0.274,-0.027,268.31,9.275,9.835
40967420,0.053,0.309,-0.674,293.877,-17.395,-32.55
40967420,0.185,1.436,-1.381,293.912,-44.45,-92.102
40967430,-0.366,1.235,-0.515,251.212,-82.932,-140.472
40967440,1.299,-1.998,0.499,16.187,204.067,68.95
40967450,-0.552,-0.898,-1.326,299.74,55.44,175.945
40967460,0.31,1.997,1.953,568.417,139.142,-99.4
40967470,-1.72,0.291,1.907,245.612,64.715,93.992
40967480,1.031,-1.687,0.462,79.502,-44.485,73.727
40967490,-1.738,1.959,1.998,397.25,13.702,-28.892
40967500,-0.135,-0.738,1.544,47.827,-41.527,-23.345
40967510,-0.06,0.572,1.759,-10.535,-31.867,-64.505
40967520,0.129,-0.545,1.044,-101.57,-24.955,-65.135
40967530,0.215,-0.681,0.761,-120.837,-14.385,-66.517
40967540,0.427,-0.496,0.844,-101.5,-2.922,-59.027
40967550,0.544,-0.382,1.085,-105.84,4.095,-37.012
40967560,0.437,-0.176,1.218,-127.172,6.02,-4.2
40967570,0.127,-0.306,1.172,-161.087,4.532,19.967
40967580,-0.019,-0.477,1.046,-183.382,1.032,18.55
40967590,-0.053,-0.618,0.894,-207.287,8.767,-1.47
40967600,-0.083,-0.899,0.644,-240.8,22.47,-53.585
40967610,-0.32,-0.773,1.001,-277.27,38.535,-101.78
40967620,-0.289,-0.656,0.93,-301.227,53.375,-138.95
40967630,0.431,-1.058,0.692,-346.045,102.602,-150.832
40967640,1.249,-1.733,0.764,-360.64,230.072,-116.55
40967650,0.949,-1.911,0.2,-334.197,381.01,-103.022
40967660,0.812,-1.876,0.85,-318.587,421.347,-145.407
40967670,1.136,-1.997,0.774,-267.085,466.742,-132.615
40967680,1.992,-1.983,0.911,-164.325,477.365,-147.892
40967690,0.203,-1.998,0.227,30.415,387.992,-305.707
40967700,-1.491,-1.435,0.146,200.672,282.187,-375.357
40967710,-1.826,-0.643,-0.146,273.91,157.57,-367.115
40967720,-1.812,-0.294,-0.341,301.525,44.747,-314.335
40967730,-1.388,-0.098,-0.663,295.662,-32.112,-243.495
40967740,-0.991,0.117,-1.074,272.387,-58.642,-159.705
40967750,-0.814,0.296,-1.217,251.23,-41.055,-66.36
40967760,-0.838,0.497,-1.007,215.145,-26.285,19.705
40967760,-1.062,0.592,-0.548,147.14,-37.677,93.782
40967780,-1.248,0.34,-0.182,46.602,-87.64,167.405
40967780,-1.102,-0.169,-0.003,-55.562,-139.352,243.337
40967800,-0.812,-0.701,0.105,-106.015,-180.862,311.22
40967800,-0.618,-0.946,0.093,-84.98,-210.262,352.94
40967820,-0.525,-0.683,0.035,-30.695,-235.83,378.052
40967820,-0.215,-0.323,-0.216,-6.352,-251.125,403.042
40967830,0.341,-0.207,-0.539,-20.615,-244.737,411.617
40967840,1.151,0.063,-0.776,-46.847,-220.465,394.94
40967850,1.925,0.714,-0.682,-108.832,-161.455,353.92
40967860,1.763,0.293,-0.672,-161.997,-121.94,216.65
40967870,1.901,-1.929,1.989,-38.447,-133.245,-24.027
40967880,-0.2,-1.998,-0.282,-2.222,132.807,-8.172
40967890,-0.636,0.268,-1.578,492.555,-285.967,-55.965
40967900,1.32,1.891,1.974,467.687,201.25,44.782
40967910,-1.713,-1.452,0.922,159.985,16.782,36.242
40967920,-0.892,-1.269,0.735,309.19,-42.087,-71.925
40967930,0.468,1.892,1.998,424.392,8.067,-95.97
40967940,-0.096,0.402,1.937,176.627,-23.8,-100.397
40967950,0.522,0.162,1.909,43.995,-23.52,-76.527
40967960,0.221,0.45,1.791,-45.202,-13.93,-43.767
40967970,0.138,-0.362,1.14,-154.21,-20.562,-9.257
40967980,0.035,-0.675,0.553,-168.052,-29.645,5.932
40967990,0.132,-0.973,0.257,-136.36,-28.245,10.01
40968000,0.184,-0.825,0.537,-87.552,-10.99,4.042
40968010,0.202,-0.462,0.943,-67.392,5.337,4.112
40968020,0.263,-0.312,1.058,-81.34,11.235,11.445
40968030,0.294,-0.494,1.05,-106.225,18.655,21.682
40968040,0.276,-0.43,1.054,-119.84,27.912,28.577
40968050,0.174,-0.517,1.05,-145.232,40.022,30.31
40968060,0.081,-0.613,0.973,-169.155,54.792,20.3
40968070,-0.166,-0.343,1.196,-194.372,66.622,0.805
40968080,-0.267,-0.49,1.071,-248.815,56.472,-27.125
40968080,-0.229,-0.759,0.998,-290.15,40.442,-43.977
40968100,-0.048,-1.05,0.971,-302.015,40.897,-35.752
40968100,0.088,-1.431,0.937,-287.787,64.837,-9.1
40968120,0.044,-1.434,0.843,-257.337,101.167,18.637
40968120,0.488,-1.517,0.983,-238.035,115.92,27.055
40968140,0.323,-1.743,0.674,-208.302,89.355,5.425
40968140,-0.401,-1.279,0.472,-105.35,53.445,-36.977
40968160,0.798,-1.752,0.425,-45.15,31.692,-42.647
40968160,0.56,-1.631,0.279,83.79,39.305,-73.517
40968170,-0.297,-1.114,-0.094,224.385,40.46,-148.137
40968180,-1.09,-0.501,-0.266,273.157,-2.135,-179.34
40968190,-1.268,-0.231,-0.278,266.787,-54.337,-167.562
40968200,-1.067,-0.111,-0.34,255.955,-78.592,-132.667
40968210,-1.076,0.065,-0.49,252.367,-91.035,-83.09
40968220,-1.17,0.313,-0.717,241.535,-91.7,-22.592
40968230,-1.096,0.644,-0.644,209.072,-76.667,56.525
40968240,-0.916,0.732,-0.393,128.712,-51.537,160.947
40968250,-0.639,0.296,-0.136,28.245,-35.542,256.585
40968260,-0.241,-0.232,0.174,-32.567,-35.612,303.152
40968270,0.158,-0.461,0.32,-40.162,-50.995,305.287
40968280,0.715,-0.351,0.293,-29.697,-67.777,285.057
40968290,1.255,-0.24,0.353,-38.237,-84.787,235.392
40968300,1.841,-0.2,0.329,-68.145,-90.44,145.617
40968310,1.902,-0.498,0.309,-74.532,-57.155,44.397
40968320,0.768,-0.787,-0.229,-30.905,-32.9,-74.812
40968330,-1.998,-1.987,1.998,173.197,-96.617,-130.707
40968340,-0.913,-1.978,-1.72,121.327,-76.72,77.63
40968350,1.797,1.758,1.216,531.107,32.182,17.955
40968360,-1.885,1.967,1.919,353.22,64.925,40.197
40968370,-0.779,-0.206,1.175,166.25,-21.542,-27.702
40968380,0.902,-1.799,1.034,138.25,-19.04,-53.182
40968390,-1.003,1.251,1.903,215.985,-7.77,-94.447
40968400,0.507,-0.238,1.513,61.407,-16.782,-87.587
40968410,0.308,-0.189,1.329,-9.572,-3.027,-77.437
40968420,0.355,-0.229,1.031,-37.555,4.2,-52.465
40968430,0.359,-0.64,0.778,-62.965,10.15,-32.217
40968440,0.296,-0.369,1.007,-50.487,19.145,-17.08
40968450,0.229,-0.272,1.219,-70.07,25.13,0.35
40968460,0.057,-0.25,1.222,-103.6,27.93,12.127
40968470,-0.083,-0.388,1.106,-139.422,31.657,10.727
40968480,-0.067,-0.479,1.005,-166.127,36.627,-0.49
40968490,0.061,-0.569,1.051,-194.32,52.29,-15.242
40968500,-0.227,-0.835,0.732,-221.217,93.817,-30.047
40968510,-0.592,-0.613,0.868,-220.325,96.565,-56.665
40968510,-0.358,-0.634,0.915,-257.88,74.935,-97.895
40968530,0.11,-0.93,0.904,-290.185,83.352,-107.502
40968530,0.57,-1.632,0.998,-283.342,135.747,-85.137
40968550,0.648,-1.897,0.927,-266.822,230.895,-63.857
40968550,0.043,-1.998,0.778,-225.225,295.242,-40.407
40968570,0.025,-1.998,0.993,-156.397,193.882,-74.042
40968570,1.322,-1.998,0.88,-53.742,99.75,-110.25
40968580,0.321,-1.729,0.25,133.875,37.415,-161.595
40968590,-1.185,-0.82,-0.404,237.422,-85.785,-253.382
40968600,-1.729,-0.209,-0.484,206.902,-185.36,-244.79
40968610,-1.02,-0.014,-0.69,165.322,-204.96,-160.317
40968620,-0.307,0.039,-0.75,149.257,-162.05,-56.735
40968630,-0.355,0.122,-0.547,122.937,-115.272,17.64
40968640,-0.739,0.214,-0.297,78.277,-86.835,77.787
40968650,-0.791,0.149,-0.066,37.1,-72.747,142.887
40968660,-0.387,-0.033,0.105,1.435,-74.55,200.9
40968670,-0.083,-0.233,0.238,-18.812,-86.677,232.452
40968680,0.064,-0.288,0.222,-15.505,-106.977,239.207
40968690,0.554,-0.195,0.13,-7.14,-115.01,240.222
40968700,1.086,-0.133,0.041,-11.515,-106.575,229.967
40968710,1.421,-0.072,0.053,-31.972,-90.3,183.05
40968720,1.298,-0.018,0.059,-57.715,-69.597,108.937
40968730,0.865,0.074,0.04,-73.552,-49.577,32.165
40968740,0.434,0.188,0.02,-89.862,-36.89,-23.17
40968750,0.089,0.016,-0.203,-90.562,-32.515,-64.47
40968760,-0.078,-0.414,0.722,111.405,-21.192,-70.525
40968770,-1.258,-1.998,1.69,39.935,135.275,63.892
40968780,-1.304,-1.859,-1.997,312.672,-146.492,132.545
40968790,1.998,1.868,0.654,551.005,-12.495,21.122
40968800,-1.258,0.88,1.515,323.96,120.137,84.542
40968810,-1.906,-0.406,1.487,211.067,-17.342,-5.652
40968820,1.209,-0.382,1.927,241.447,-7.297,-11.06
40968830,-1.371,0.82,1.998,170.607,-18.83,-91.297
40968830,0.491,0.42,1.815,14.28,-29.995,-107.695
40968850,0.007,-0.36,1.363,-88.48,-16.38,-101.78
40968850,0.245,-0.428,0.788,-114.852,-23.625,-88.13
40968870,0.347,-0.984,0.288,-115.692,-24.36,-65.257
40968870,0.411,-0.911,0.362,-66.097,-10.342,-51.922
40968890,0.329,-0.537,0.786,-33.967,3.867,-34.492
40968890,0.354,-0.335,0.954,-31.062,1.33,-12.302
40968910,0.27,-0.339,1.044,-45.08,-0.49,13.37
40968910,0.106,-0.474,1.039,-65.695,-0.822,27.597
40968920,0.093,-0.457,1.113,-86.24,4.27,28.542
40968930,0.034,-0.461,1.219,-115.045,9.275,21.525
40968940,-0.115,-0.529,1.143,-158.287,15.872,5.495
40968950,-0.293,-0.659,1.263,-207.9,15.487,-20.895
40968960,-0.557,-0.702,1.221,-245.98,4.655,-55.352
40968970,-0.481,-0.649,1.229,-265.755,-21.91,-93.415
40968980,0.238,-0.704,0.99,-282.782,-23.747,-104.212
40968990,0.576,-0.947,0.775,-289.467,48.965,-74.672
40969000,0.466,-1.357,0.935,-297.587,152.495,-47.74
40969010,0.024,-1.638,0.915,-272.825,235.2,-24.237
40969020,0.308,-1.358,0.867,-252.56,264.372,-52.045
40969030,0.339,-1.584,0.583,-197.4,258.527,-77.402
40969040,0.422,-1.922,0.444,-104.23,239.312,-79.345
40969050,0.838,-1.452,0.156,28.157,245.297,-101.78
40969060,0.206,-1.031,0.007,153.055,253.085,-131.11
40969070,-0.3,-0.642,-0.014,207.497,234.535,-127.96
40969080,-0.461,-0.428,-0.165,231.875,182.892,-101.815
40969090,-0.471,-0.254,-0.291,247.24,114.205,-73.902
40969100,-0.434,-0.067,-0.441,235.462,33.32,-63.437
40969110,-0.428,0.038,-0.592,202.405,-32.462,-58.625
40969120,-0.345,0.114,-0.721,160.335,-77.91,-52.43
40969130,-0.133,0.209,-0.756,113.872,-88.217,-32.147
40969140,-0.075,0.199,-0.618,63.752,-66.552,5.127
40969150,-0.294,0.043,-0.389,9.8,-47.46,46.567
40969160,-0.612,-0.148,-0.188,-37.065,-49.437,83.947
40969170,-0.742,-0.307,-0.012,-69.352,-72.835,118.72
40969180,-0.583,-0.452,-0.011,-99.417,-113.68,154.14
40969190,-0.269,-0.556,-0.073,-124.11,-158.847,182.91
40969200,0.264,-0.598,-0.126,-146.37,-197.032,190.872
40969210,0.898,-0.571,-0.219,-169.872,-211.26,180.547
40969220,1.515,-0.604,-0.539,-222.267,-202.702,120.715
40969230,1.998,-1.876,1.971,-31.377,-99.855,20.877
40969240,-0.577,-1.868,1.998,205.03,33.652,-38.237
40969250,-1.963,-1.998,-0.848,259.437,-166.25,-56.245
40969260,1.564,0.12,-0.732,395.692,-35.927,-4.462
40969260,0.489,1.16,1.414,298.97,232.102,64.697
40969280,-1.998,-0.94,0.74,249.847,68.005,-38.237
40969280,0.315,-0.688,1.302,266.612,69.982,-8.33
40969300,-0.451,0.515,1.946,272.125,55.772,-51.187
40969300,-0.389,0.242,1.838,163.152,6.44,-73.797
40969320,0.23,-0.306,1.655,75.075,-9.905,-61.215
40969320,0.208,0.11,1.546,18.69,-19.197,-52.307
40969330,0.336,-0.274,1.269,-52.832,-27.755,-22.277
40969340,0.26,-0.321,1.081,-88.987,-32.252,4.322
40969350,0.157,-0.457,0.954,-113.085,-30.415,19.512
40969360,0.115,-0.472,1.039,-128.52,-19.197,22.382
40969370,0.013,-0.408,1.094,-148.872,-8.855,17.447
40969380,0.091,-0.548,0.984,-176.995,-4.812,7.787
40969390,-0.019,-0.642,0.776,-190.435,7.822,-4.287
40969400,-0.034,-0.574,0.889,-223.807,23.607,-26.845
40969410,-0.184,-0.503,1.002,-273.472,30.887,-62.37
40969420,-0.129,-0.748,1.149,-322.63,26.932,-97.93
40969430,0.409,-0.995,1.164,-356.44,42.087,-93.695
40969440,0.582,-1.469,1.03,-367.937,112.98,-43.417
40969450,0.007,-1.923,1.158,-342.72,226.59,20.807
40969460,-0.398,-1.9,1.126,-295.277,267.26,42.017
40969470,-0.637,-1.198,1.137,-231.7,192.272,-23.625
40969480,-0.844,-1.48,0.414,-146.842,90.825,-74.83
40969490,-1.105,-1.571,-0.066,-46.935,-16.082,-89.6
40969500,-1.031,-0.855,-0.04,105.892,-70.945,-86.292
40969510,-1.165,-0.493,-0.308,208.39,-100.1,-79.38
40969520,-1.241,-0.142,-0.542,239.382,-107.222,-25.497
40969530,-0.803,0.002,-0.683,244.457,-88.48,50.855
40969540,-0.429,-0.04,-0.796,225.995,-62.667,114.397
40969550,-0.137,0.015,-0.85,200.252,-34.982,157.307
40969560,-0.056,0.183,-0.662,158.042,-11.637,183.89
40969570,-0.12,0.203,-0.496,79.415,-32.777,186.27
40969580,0.156,0.087,-0.343,-15.68,-83.947,167.93
40969580,0.649,-0.221,-0.16,-86.52,-116.392,154.525
40969600,0.826,-0.516,0.091,-114.292,-127.382,140.507
40969600,0.852,-0.573,0.22,-109.69,-126.28,114.345
40969620,0.897,-0.447,0.309,-95.987,-113.627,91.717
40969620,0.982,-0.373,0.166,-113.085,-88.585,69.492
40969640,0.914,-1.056,0.041,-83.86,-61.845,45.92
40969640,0.864,-0.625,0.348,130.917,-10.657,-3.132
40969660,-0.264,0.069,-0.684,187.215,-42.682,-42.017
40969660,-1.174,-1.057,1.446,77.997,-243.81,-105.84
40969670,1.773,-1.998,0.995,-67.585,-12.11,90.16
40969680,-0.685,-0.726,-1.997,403.13,-89.722,54.565
40969690,1.921,1.997,1.044,454.195,-66.745,-2.257
40969700,-1.155,-0.204,1.69,104.387,182,89.722
40969710,-1.67,-1.933,0.983,129.57,15.61,33.145
40969720,0.102,-0.279,0.46,298.987,-12.407,1.085
40969730,-0.541,0.008,1.534,240.817,22.05,-28.472
40969740,-0.865,-0.181,1.52,166.897,-4.2,-85.575
40969750,0.123,-0.13,1.62,112.49,0.052,-101.08
40969760,0.176,-0.032,1.498,41.842,0.91,-103.127
40969770,0.454,-0.277,1.334,-32.655,6.44,-85.33
40969780,0.372,-0.214,1.206,-78.505,13.352,-58.502
40969790,0.311,-0.389,1.106,-117.32,19.302,-34.23
40969800,0.315,-0.425,1.09,-144.812,29.837,-20.65
40969810,0.205,-0.362,1.125,-159.705,40.967,-10.78
40969820,0.175,-0.429,0.962,-199.22,47.547,-13.632
40969830,0.116,-0.662,0.796,-239.925,52.22,-31.57
40969840,-0.01,-0.685,0.848,-275.642,58.257,-56.822
40969850,-0.118,-0.719,0.986,-300.055,74.462,-73.587
40969860,0.247,-1.015,0.662,-323.05,98.262,-80.955
40969870,0.659,-1.559,0.613,-334.862,168.14,-37.187
40969880,0.681,-1.785,0.698,-322.77,278.547,-2.87
40969890,0.038,-1.784,0.582,-298.62,349.842,11.725
40969900,0.258,-1.65,0.829,-273.42,330.242,-18.41
40969910,0.276,-1.686,1.026,-210.42,314.317,-26.337
40969920,1.307,-1.998,0.811,-120.05,292.757,-42.017
40969930,0.73,-1.996,0.507,48.632,220.272,-159.95
40969940,-0.781,-1.448,0.193,199.552,125.125,-237.947
40969950,-1.034,-0.72,0.057,265.23,40.232,-237.265
40969960,-0.935,-0.437,-0.196,298.462,-35.052,-201.162
40969970,-1.323,-0.298,-0.53,330.172,-113.54,-149.292
40969980,-1.277,0.041,-0.854,335.58,-189.087,-115.71
40969990,-0.709,0.402,-1.222,292.337,-204.312,-52.762
40970000,-0.319,0.607,-1.09,225.925,-178.097,42.017
40970010,-0.429,0.569,-0.811,130.515,-137.795,130.707
40970010,-0.757,0.272,-0.601,25.987,-117.95,194.267
40970030,-0.818,-0.098,-0.377,-50.225,-132.51,235.55
40970030,-0.622,-0.451,-0.204,-90.982,-173.88,262.762
40970050,-0.182,-0.691,-0.196,-111.562,-210.56,284.427
40970050,0.222,-0.872,-0.26,-115.587,-226.992,299.687
40970070,0.696,-0.928,-0.388,-113.382,-224.822,301.402
40970070,1.187,-0.875,-0.439,-114.24,-197.872,290.71
40970080,1.384,-0.713,-0.192,-129.937,-159.46,239.12
40970090,1.457,-0.868,-1.105,-202.3,-132.93,132.247
40970100,1.141,-0.924,0.97,38.692,-96.915,-6.195
40970110,-0.679,-0.72,1.998,43.557,-47.862,-70.297
40970120,-1.918,-1.998,1.206,24.395,109.76,58.38
40970130,-0.471,-1.738,-1.997,426.457,-67.077,86.502
40970140,1.272,1.802,1.305,421.575,101.062,49.665
40970150,-1.997,-0.21,1.011,299.075,97.615,-31.202
40970160,-1.035,-0.941,0.596,311.307,-12.232,-92.312
40970170,0.915,0.04,1.634,311.15,16.905,-107.642
40970180,-0.457,0.931,1.998,250.04,17.115,-133.787
40970190,0.679,-0.153,1.895,101.587,9.73,-106.26
40970200,0.412,0.136,1.706,23.117,9.065,-72.502
40970210,0.376,-0.196,1.269,-53.392,0.875,-23.922
40970220,0.106,-0.602,0.814,-97.527,-6.195,5.81
40970230,0.014,-0.747,0.61,-99.557,-0.577,13.685
40970240,-0.003,-0.676,0.77,-82.88,15.155,7.297
40970250,0.118,-0.497,0.937,-85.067,31.972,1.592
40970260,0.234,-0.517,0.963,-107.327,44.38,2.852
40970270,0.279,-0.479,0.967,-132.86,63.892,8.82
40970280,0.258,-0.52,0.936,-161.525,86.555,13.492
40970290,0.062,-0.482,0.927,-194.18,117.512,16.852
40970300,-0.087,-0.412,0.967,-226.03,132.492,11.217
40970310,0.039,-0.576,0.955,-267.137,143.972,10.64
40970320,0.116,-0.585,0.926,-299.162,145.18,20.37
40970330,0.467,-1.25,0.786,-321.3,170.327,55.562
40970330,0.004,-1.449,1.025,-324.222,219.94,119.122
40970350,-0.081,-1.406,1.14,-324.905,281.977,165.357
40970350,-0.708,-1.764,1.275,-328.02,314.055,178.482
40970370,-0.753,-1.962,1.129,-265.895,210.63,127.47
40970370,0.102,-1.834,0.844,-123.9,102.147,62.475
40970390,0.932,-1.998,0.88,30.03,4.34,-55.44
40970390,0.358,-1.677,0.398,230.772,-50.697,-178.552
40970410,-0.252,-0.877,0.193,340.182,-59.185,-212.45
40970410,-0.555,-0.677,-0.098,344.907,-105.07,-234.797
40970420,-0.965,-0.632,-0.589,345.537,-179.06,-259.682
40970430,-0.924,-0.214,-0.879,364.875,-235.812,-281.137
40970440,-0.563,0.194,-1.003,361.777,-249.007,-276.797
40970450,-0.268,0.407,-0.856,319.742,-220.657,-231.402
40970460,-0.049,0.402,-0.695,255.062,-163.625,-161.525
40970470,-0.135,0.299,-0.71,188.982,-100.17,-93.38
40970480,-0.348,0.389,-0.508,132.282,-66.57,-45.15
40970490,-0.438,0.467,-0.224,71.645,-69.072,-11.987
40970500,-0.369,0.34,-0.049,2.065,-91.822,20.965
40970510,-0.043,0.038,0.037,-52.587,-112.682,53.97
40970520,0.336,-0.141,0.092,-69.632,-119.455,75.862
40970530,0.458,-0.062,0.147,-63.297,-119.227,82.11
40970540,0.497,-0.062,0.008,-65.012,-128.66,66.815
40970550,1.211,-1.413,0.058,-97.877,-148.242,-30.94
40970560,-0.145,-1.998,1.678,72.852,67.025,160.405
40970570,-1.965,-1.998,-1.995,290.675,-47.232,494.9
40970580,1.892,1.233,-0.298,520.45,-210.455,147.927
40970590,-0.184,1.092,1.325,303.152,151.305,285.495
40970600,-1.998,-1.845,1.191,96.652,22.382,72.205
40970610,0.763,-0.51,1.139,211.75,8.557,48.475
40970620,-1.495,-0.465,1.446,247.922,39.532,-58.012
40970630,-0.64,0.47,1.634,173.232,12.565,-158.095
40970640,0.063,-0.722,1.306,62.982,-10.797,-162.207
40970650,0.416,0.214,1.413,52.517,-9.275,-158.55
40970660,0.775,-0.163,1.209,-6.037,-13.632,-110.617
40970670,0.818,-0.132,1.231,-42.227,-6.685,-63.612
40970680,0.627,-0.034,1.328,-80.727,-3.762,-15.54
40970690,0.523,-0.086,1.409,-128.52,0.017,27.3
40970700,0.268,-0.175,1.38,-175.402,2.31,53.007
40970710,0.088,-0.367,1.146,-223.16,18.27,63.997
40970720,-0.205,-0.446,1.132,-260.645,23.52,46.13
40970730,-0.424,-0.722,0.936,-288.697,19.635,1.715
40970730,-0.48,-0.66,1.192,-314.44,7.997,-39.007
40970750,0.115,-0.868,1.211,-367.15,4.27,-76.3
40970750,0.678,-1.309,1.152,-397.88,49.945,-60.182
40970760,0.681,-1.713,1.017,-394.38,185.167,16.065
40970770,0.75,-1.998,0.947,-370.195,315.91,68.915
40970780,0.456,-1.772,0.649,-318.237,254.292,-29.662
40970790,0.028,-1.841,0.416,-206.22,144.567,-103.512
40970800,-0.206,-1.5,0.419,-78.207,44.677,-95.532
40970810,-1.126,-1.21,0.254,80.832,-57.767,-144.637
40970820,-1.587,-0.486,0.035,152.722,-167.247,-156.52
40970830,-1.362,-0.095,-0.553,184.59,-233.52,-99.102
40970840,-0.834,0.32,-0.957,203.647,-224.192,-6.265
40970850,-0.543,0.577,-1.064,187.88,-175.297,94.237
40970860,-0.602,0.554,-0.91,130.06,-129.517,183.942
40970870,-0.745,0.251,-0.584,54.162,-116.987,247.607
40970880,-0.636,-0.103,-0.359,-14,-141.4,279.247
40970890,-0.241,-0.366,-0.224,-61.617,-182.262,285.6
40970900,0.108,-0.603,-0.074,-86.485,-217.105,276.832
40970910,0.356,-0.809,0.012,-91.42,-242.497,249.515
40970920,0.719,-0.841,0.207,-72.38,-249.112,211.592
40970930,0.976,-0.759,0.38,-48.545,-235.83,168.805
40970940,1.195,-0.601,0.371,-26.652,-200.095,116.69
40970950,1.302,-0.364,0.246,-10.675,-149.502,49.77
40970960,0.948,-0.442,-0.047,14.49,-96.197,-17.482
40970970,0.719,-0.068,-0.267,131.477,-24.517,-96.95
40970980,0.296,0.391,-0.388,153.3,12.32,-143.027
40970990,-0.996,0.734,-1.338,134.015,-9.065,-156.94
40971000,-1.129,-0.427,1.652,112.227,-208.25,-177.555
40971010,1.27,-1.998,-0.184,-60.392,140.927,210.84
40971020,0.918,0.725,-1.119,498.487,-59.342,57.82
40971030,0.074,1.485,1.926,410.935,229.285,39.97
40971040,-1.998,-1.912,1.068,121.275,130.9,40.18
40971050,0.975,-0.744,0.216,419.702,15.277,42.157
40971060,-1.402,1.585,1.948,456.452,63.997,-7.717
40971070,-0.559,0.159,1.905,273,14.105,-54.46
40971080,-0.402,0.02,1.939,157.727,-8.26,-93.45
40971080,0.292,0.406,1.854,64.925,-14.577,-101.29
40971100,0.256,-0.207,1.354,-63.63,-11.165,-76.23
40971100,0.279,-0.299,1.131,-114.1,-2.187,-55.912
40971120,0.594,-0.357,1.067,-147.525,9.922,-43.33
40971120,0.514,-0.187,1.217,-170.555,29.715,-21.612
40971140,0.344,-0.247,1.15,-205.607,38.027,4.987
40971140,0.232,-0.461,1.026,-231.192,40.092,18.375
40971160,0.023,-0.44,0.756,-243.442,53.042,15.54
40971160,-0.161,-0.567,0.818,-286.422,50.505,-11.795
40971170,-0.32,-0.64,0.988,-330.452,40.232,-48.79
40971180,0.098,-0.985,0.812,-364.49,45.01,-66.535
40971190,0.669,-1.616,0.764,-376.145,106.435,-38.307
40971200,0.844,-1.998,0.918,-359.537,262.132,16.345
40971210,-0.253,-1.989,0.643,-327.95,368.97,6.527
40971220,0.193,-1.578,1.219,-285.775,311.08,-43.837
40971230,0.451,-1.983,0.907,-208.425,250.862,-55.405
40971240,1.255,-1.998,0.474,-76.142,190.347,-83.545
40971250,-0.116,-1.977,0.16,126.35,98.297,-199.412
40971260,-0.994,-1.243,-0.09,266.91,14.49,-250.075
40971270,-1.228,-0.582,-0.4,308.105,-53.865,-232.155
40971280,-0.938,-0.295,-0.8,323.155,-79.397,-169.4
40971290,-0.469,0.162,-1.31,315.91,-62.632,-84.175
40971300,-0.421,0.668,-1.718,286.702,-26.162,-1.26
40971310,-0.632,0.989,-1.372,220.657,2.485,67.917
40971320,-0.836,1.006,-0.823,84.455,-6.09,127.942
40971330,-0.849,0.531,-0.47,-71.872,-50.26,181.737
40971340,-0.516,-0.169,-0.194,-175.595,-110.057,218.312
40971350,-0.033,-0.522,0.036,-200.987,-160.58,227.92
40971360,0.296,-0.434,0.198,-191.695,-192.237,227.605
40971370,0.61,-0.335,0.211,-191.887,-201.932,224.035
40971380,0.925,-0.37,0.303,-200.322,-185.64,215.565
40971390,1.033,-0.41,0.376,-197.4,-163.24,181.877
40971400,1.087,-0.342,0.394,-185.185,-141.855,125.72
40971410,1.517,-0.884,-0.068,-212.835,-118.072,35.437
40971420,0.051,-1.086,-0.344,80.797,-104.825,-31.692
40971420,-1.998,-0.378,1.985,195.93,-218.435,-64.872
40971440,-0.782,-1.998,1.991,46.48,-318.027,-17.902
40971440,1.991,-1.998,0.029,297.867,-142.397,182.98
40971460,1.982,-1.072,-1.863,416.745,-39.27,132.492
40971460,-0.577,0.7,1.623,382.76,171.255,77.805
40971480,-1.998,0.244,1.559,348.127,75.302,27.58
40971480,0.305,-0.744,0.448,377.02,-37.765,-21.227
40971500,-0.479,-0.123,1.487,341.32,8.627,-120.89
40971500,-0.171,0.936,1.945,305.497,-1.137,-155.785
40971510,0.899,-0.057,1.899,172.025,-11.672,-125.51
40971520,0.642,0.284,1.792,86.922,-23.012,-70.682
40971530,0.469,-0.055,1.451,-4.55,-37.87,-1.295
40971540,0.009,-0.43,1.03,-69.072,-38.92,31.745
40971550,-0.007,-0.568,0.864,-89.075,-29.382,28.84
40971560,0.189,-0.457,0.993,-95.252,-8.33,13.422
40971570,0.249,-0.305,1.154,-113.68,11.585,8.68
40971580,0.249,-0.334,1.139,-150.517,25.812,13.842
40971590,0.252,-0.462,1.029,-187.757,35.962,19.215
40971600,0.217,-0.614,0.883,-213.622,52.85,22.645
40971610,-0.109,-0.303,1.079,-224.332,71.067,22.067
40971620,-0.34,-0.24,1.053,-280.56,60.97,2.065
40971630,0.055,-0.788,0.874,-337.872,59.535,-3.255
40971640,0.641,-1.525,0.859,-374.185,100.94,23.012
40971650,0.586,-1.744,1.11,-385.91,209.895,77.28
40971660,0.948,-1.998,1.076,-346.482,219.1,86.975
40971670,0.828,-1.998,1.068,-364.332,207.655,22.837
40971680,0.253,-1.998,0.972,-226.537,199.08,-9.52
40971690,1.907,-1.998,0.27,-75.897,94.797,-73.535
40971700,0.23,-1.998,-0.233,186.952,1.452,-276.325
40971710,-1.011,-1.404,-0.431,347.287,-48.72,-375.935
40971720,-1.408,-0.489,-0.603,367.43,-95.847,-380.66
40971730,-1.488,-0.005,-0.783,347.917,-113.767,-333.322
40971740,-1.302,0.455,-1.197,315.612,-111.947,-248.885
40971750,-1.125,0.806,-1.192,255.202,-88.847,-155.54
40971760,-1.017,0.849,-0.783,158.025,-53.9,-66.972
40971770,-1.17,0.483,-0.682,58.485,-37.537,12.39
40971780,-1.085,0.165,-0.449,12.337,-44.03,59.412
40971790,-0.645,-0.021,0.008,-15.242,-55.317,82.582
40971800,-0.223,-0.299,0.364,-46.427,-56.035,106.855
40971810,-0.023,-0.632,0.546,-54.057,-31.92,126.087
40971820,0.108,-0.716,0.432,-26.075,-1.61,127.47
40971830,0.152,-0.448,0.071,16.625,25.847,119.717
40971830,0.18,-0.004,-0.283,45.237,52.482,105.157
40971850,0.026,0.278,-0.478,38.237,63.945,88.27
40971850,-0.092,0.315,-0.323,-8.925,29.627,58.135
40971870,0.137,0.209,-0.111,-81.27,-15.487,35.385
40971870,0.376,0.256,0.041,-136.867,-37.555,38.797
40971890,0.429,0.22,0.149,-161.175,-50.452,35.647
40971890,1.07,-1.436,0.957,-147.717,-104.475,-72.765
40971910,1.182,-1.998,1.962,221.637,21.7,76.79
40971910,-1.092,-1.721,-1.878,323.697,49.507,212.205
40971920,1.745,1.986,1.051,547.05,40.145,107.135
40971930,-1.936,0.954,1.734,328.51,83.142,142.905
40971940,-0.939,-1.97,0.515,152.232,-71.102,62.93
40971950,0.39,-0.276,1.603,311.5,-19.04,9.94
40971960,-1.435,1.571,1.995,290.255,-21.945,-90.23
40971970,0.256,-0.776,1.618,52.587,-42.367,-113.627
40971980,0.037,0.207,1.643,16.03,-28.315,-130.602
40971990,0.538,-0.043,1.383,-61.53,-33.162,-98.612
40972000,0.767,-0.43,1.17,-117.827,-31.955,-58.1
40972010,0.712,-0.139,1.265,-144.637,-15.557,-22.592
40972020,0.353,-0.107,1.319,-188.895,-5.67,8.715
40972030,0.427,-0.362,1.112,-237.65,-9.1,23.222
40972040,0.156,-0.518,1.098,-257.827,-1.995,30.52
40972050,-0.066,-0.223,0.974,-284.112,-3.675,19.11
40972060,-0.3,-0.533,1.23,-343.612,-24.92,-13.317
40972070,0.168,-1.081,1.292,-392.157,-36.505,-23.852
40972080,0.979,-1.546,1.185,-407.977,12.775,26.425
40972090,1.057,-1.984,1.037,-394.975,148.295,104.527
40972100,0.594,-1.994,1.546,-358.977,213.342,106.662
40972110,-0.627,-1.77,0.84,-289.117,108.097,-7.262
40972120,-1.204,-1.961,0.302,-158.217,-33.687,-83.807
40972130,0.044,-1.765,-0.262,-13.615,-137.025,-73.937
40972140,-0.105,-1.246,-0.277,181.86,-149.52,-127.487
40972150,-0.898,-0.561,-0.46,249.952,-127.627,-144.217
40972160,-1.202,-0.103,-0.635,255.045,-116.445,-113.015
40972170,-1.03,0.153,-0.831,246.557,-95.69,-46.147
40972170,-0.675,0.328,-0.99,209.755,-89.722,23.8
40972190,-0.377,0.501,-0.918,150.447,-91.665,68.407
40972190,-0.25,0.654,-0.716,80.132,-99.942,84.49
40972210,-0.044,0.677,-0.473,-0.56,-110.617,92.067
40972210,0.274,0.525,-0.134,-85.557,-107.537,104.895
40972230,0.454,0.149,0.134,-148.68,-97.912,111.142
40972230,0.493,-0.053,0.366,-165.252,-88.112,102.97
40972250,0.565,-0.05,0.599,-158.62,-74.462,92.54
40972250,0.584,-0.093,0.83,-156.012,-61.302,82.11
40972260,0.551,-0.291,0.969,-148.102,-46.602,67.48
40972270,0.729,-0.604,0.937,-149.362,-30.1,36.207
40972280,0.841,-1.219,0.667,-198.485,-5.845,-50.487
40972290,-0.026,-0.63,0.843,170.555,35,-43.557
40972300,-0.776,0.341,0.71,407.837,24.377,44.695
40972310,-1.306,0.312,-1.292,361.427,-98.962,13.912
40972320,-1.704,-0.713,-0.08,273.787,-500.377,-194.005
40972330,1.998,-1.998,-0.658,25.217,-109.2,242.725
40972340,1.001,-0.211,-1.496,458.36,157.325,166.495
40972350,0.569,1.997,1.54,446.827,147.525,50.802
40972360,-1.998,-0.877,-0.154,104.772,217.42,158.725
40972370,-0.64,-1.982,-0.029,230.492,75.687,197.102
40972380,-0.057,0.769,1.566,490.752,79.957,80.115
40972390,-1.761,1.414,1.978,380.537,27.615,-32.532
40972400,-0.349,-0.792,1.627,207.987,-21.91,-98.525
40972410,-0.16,0.467,1.951,175.577,-34.615,-153.177
40972420,0.561,0.391,1.895,57.05,-36.207,-127.26
40972430,0.55,-0.039,1.527,-52.465,-41.457,-77.507
40972440,0.416,-0.211,1.233,-111.44,-48.877,-32.392
40972450,0.501,-0.268,1.233,-152.757,-43.365,-10.255
40972460,0.453,-0.19,1.269,-188.142,-20.79,5.582
40972470,0.187,-0.193,1.195,-234.202,-6.842,13.562
40972480,0.132,-0.524,0.788,-278.407,1.627,2.327
40972490,0.557,-0.713,0.407,-320.705,27.405,-21.035
40972500,-0.121,-0.521,1.26,-331.677,56.105,-56.717
40972510,0.084,-0.272,1.346,-384.125,47.74,-94.762
40972520,0.638,-1.055,0.831,-433.195,68.407,-70.525
40972530,0.73,-1.993,0.38,-445.9,147.437,20.702
40972540,1.915,-1.998,1.569,-425.267,254.555,75.897
40972550,0.24,-1.948,1.336,-397.775,361.742,24.307
40972560,-1.611,-1.7,1.071,-244.615,288.102,-68.67
40972570,-0.035,-1.998,0.711,-150.307,128.59,-107.24
40972580,-0.381,-1.996,0.221,57.382,10.64,-190.225
40972580,-1.339,-1.247,-0.168,271.285,-38.36,-271.67
40972600,-1.571,-0.208,-0.314,351.19,-64.067,-262.727
40972600,-1.373,0.216,-0.55,346.5,-60.62,-195.545
40972620,-0.883,0.46,-0.823,318.517,-43.802,-106.557
40972620,-0.616,0.603,-0.929,274.732,-15.032,-24.622
40972640,-0.585,0.582,-0.887,217.945,13.912,43.155
40972640,-0.548,0.525,-0.937,153.965,34.895,86.765
40972660,-0.375,0.485,-0.803,88.637,46.585,104.125
40972660,-0.168,0.339,-0.534,8.61,49.35,108.605
40972670,-0.009,-0.048,-0.264,-69.877,52.132,103.827
40972680,0.037,-0.409,0.03,-111.142,61.74,89.512
40972690,-0.043,-0.589,0.286,-109.515,68.53,73.762
40972700,-0.051,-0.554,0.468,-94.832,61.705,53.235
40972710,0.089,-0.463,0.492,-86.415,45.797,34.072
40972720,0.423,-0.335,0.439,-71.4,42.332,22.452
40972730,0.552,-0.221,0.42,-52.71,52.237,14.945
40972740,0.259,-0.167,0.198,-37.345,48.492,-4.515
40972750,0.455,-0.301,-0.044,-44.432,31.955,-47.95
40972760,0.744,-0.26,-1.072,-69.562,11.707,-144.987
40972770,-1.743,0.034,0.481,302.75,-142.065,-88.9
40972780,0.888,-1.95,1.998,58.59,-144.55,-48.212
40972790,0.624,-1.998,-0.509,117.985,178.412,102.9
40972800,0.861,1.364,-0.408,507.71,-96.985,-118.072
40972810,-0.035,1.223,1.799,303.397,252.63,69.282
40972820,-1.553,-1.998,0.433,145.827,73.01,117.705
40972830,1.241,-0.433,0.968,367.08,-11.357,79.642
40972840,-1.645,1.348,1.964,365.627,24.955,53.935
40972850,-0.821,-0.389,1.714,202.247,-22.627,-8.592
40972860,-0.606,-0.287,1.614,159.425,-20.527,-65.187
40972870,-0.116,0.205,1.626,101.29,-13.387,-109.095
40972880,0.605,-0.078,1.464,-6.842,-10.657,-114.782
40972890,0.747,0.048,1.515,-73.78,2.327,-81.445
40972900,0.661,0.017,1.504,-147.052,7.35,-32.567
40972910,0.551,0,1.425,-210.98,13.212,7.612
40972920,0.227,-0.305,1.227,-269.01,18.672,28
40972920,-0.078,-0.818,0.759,-313.442,13.86,4.427
40972940,-0.137,-0.793,1.044,-368.882,14.262,-45.78
40972940,-0.751,-0.254,1.48,-397.39,-7.717,-99.382
40972960,0.399,-0.917,1.306,-463.242,18.655,-121.625
40972960,1.527,-1.998,0.292,-517.685,122.972,-36.872
40972980,1.919,-1.998,1.748,-554.155,396.76,61.582
40972980,-0.25,-1.966,1.179,-419.895,552.667,-48.615
40973000,-0.142,-1.993,1.034,-219.642,449.295,-162.4
40973000,0.372,-1.998,0.256,-5.32,278.512,-208.88
40973010,-1.398,-1.769,-0.333,321.23,139.16,-298.497
40973020,-1.965,-0.41,-0.401,474.145,3.185,-323.68
40973030,-1.966,0.261,-0.805,460.092,-96.127,-276.062
40973040,-1.609,0.507,-1.338,378.42,-146.702,-188.3
40973050,-1.171,0.664,-1.572,293.107,-138.897,-87.15
40973060,-0.884,0.731,-1.554,203.577,-93.695,6.895
40973070,-0.949,0.698,-1.23,116.777,-41.317,92.155
40973080,-1.109,0.446,-0.827,31.447,-26.985,150.482
40973090,-1.041,0.081,-0.471,-52.552,-54.215,188.79
40973100,-0.778,-0.324,-0.23,-113.732,-88.55,221.147
40973110,-0.462,-0.638,-0.096,-123.27,-114.135,238.297
40973120,-0.165,-0.636,0.014,-93.415,-128.135,240.555
40973130,0.031,-0.453,0.116,-67.41,-132.877,239.242
40973140,0.179,-0.392,0.156,-63.157,-129.325,236.88
40973150,0.321,-0.501,0.205,-62.405,-119.367,227.29
40973160,0.549,-0.546,0.132,-48.02,-113.085,204.33
40973170,0.807,-0.363,0.324,-20.877,-113.54,179.97
40973180,0.543,-0.358,0.452,-12.302,-147.63,135.817
40973190,0.706,-0.422,0.321,-12.792,-203.017,71.96
40973200,1.356,-0.296,0.225,-7.682,-228.69,29.032
40973210,1.805,-0.127,0.156,-13.72,-195.37,-0.682
40973220,1.589,-0.1,-0.342,-71.4,-132.912,-32.567
40973230,0.773,-0.49,-0.522,84.735,-63.332,-55.51
40973240,-1.57,0.065,-0.339,267.697,-166.39,-83.44
40973250,0.754,-1.783,1.919,56.542,-152.407,7.787
40973260,-0.725,-1.985,-1.846,165.445,164.22,396.777
40973270,1.883,1.799,-0.103,556.272,-101.692,-13.58
40973280,-1.435,1.217,1.994,320.092,249.025,160.947
40973290,-1.292,-1.881,0.149,123.847,-4.445,88.847
40973300,0.855,-0.617,1.766,344.995,26.687,26.932
40973310,-1.864,1.723,1.998,328.58,32.217,-91.857
40973320,0.34,-0.296,1.756,102.462,-17.202,-123.585
40973330,0.182,0.052,1.645,20.527,-16.222,-140.875
40973330,0.421,-0.063,1.358,-41.825,-21.21,-98.49
40973350,0.603,-0.504,1.003,-101.762,-28.455,-61.967
40973350,0.49,-0.254,1.159,-115.167,-22.89,-30.17
40973370,0.297,-0.212,1.31,-149.187,-18.847,-1.137
40973370,0.195,-0.237,1.299,-183.645,-28.735,15.435
40973380,0.044,-0.584,1.119,-221.777,-32.567,17.01
40973390,-0.133,-0.588,0.986,-247.572,-37.66,-14.84
40973400,-0.286,-0.623,1.021,-292.705,-46.112,-66.727
40973410,-0.007,-0.71,1.2,-350.962,-56.49,-117.95
40973420,0.629,-1.112,1.372,-400.61,-1.505,-121.03
40973430,1.305,-1.877,1.223,-406.542,108.517,-57.907
40973440,1.882,-1.998,1.112,-394.065,274.067,8.242
40973450,1.709,-1.998,0.825,-421.592,462.245,-57.627
40973460,0.513,-1.998,0.479,-306.075,512.907,-189.175
40973470,0.669,-1.998,0.331,-88.165,504.787,-199.902
40973480,-1.026,-1.992,0.332,206.377,386.697,-289.747
40973490,-1.998,-1.367,-0.074,345.292,206.185,-348.46
40973500,-1.998,-0.513,-0.568,396.777,48.265,-332.045
40973510,-1.75,-0.019,-1.076,402.045,-46.952,-252.682
40973520,-1.096,0.336,-1.525,371.927,-62.755,-162.4
40973530,-0.782,0.646,-1.569,325.902,-21.402,-78.575
40973540,-0.826,0.76,-1.46,259.7,27.842,13.107
40973550,-1.041,0.772,-1.222,178.255,54.687,96.372
40973560,-1.103,0.667,-0.83,77.437,32.2,159.512
40973570,-0.852,0.329,-0.511,-36.89,-15.26,219.835
40973580,-0.481,-0.202,-0.365,-129.307,-58.852,272.37
40973590,-0.213,-0.674,-0.229,-152.757,-87.465,302.225
40973600,0.016,-0.666,-0.033,-124.582,-104.72,310.415
40973610,0.199,-0.416,0.119,-104.492,-112.927,317.397
40973620,0.302,-0.421,0.15,-112.91,-117.057,322.875
40973630,0.572,-0.587,0.207,-126.017,-107.572,320.652
40973640,0.693,-0.705,0.323,-123.83,-87.447,308.647
40973650,0.709,-0.682,0.488,-112.472,-66.745,281.172
40973660,0.632,-0.668,0.622,-104.44,-50.82,246.767
40973670,0.51,-0.653,0.501,-93.275,-48.492,204.085
40973670,0.472,-0.433,0.139,-73.762,-54.565,150.412
40973690,0.352,-0.123,-0.156,-61.967,-69.895,94.08
40973690,0.318,0.591,-0.23,-134.505,-109.795,19.232
40973710,0.047,-0.732,-0.813,-82.18,-148.225,-32.917
40973710,-1.422,-1.475,1.533,150.027,-274.907,-123.112
40973730,1.603,-1.998,0.765,34.002,-194.355,-168.402
40973730,0.327,0.283,-0.719,418.617,-165.725,-73.325
40973750,-0.608,1.24,1.762,361.567,78.207,-53.48
40973750,-0.934,-1.998,0.234,188.422,33.477,-51.747
40973760,0.725,0.25,1.371,335.37,24.85,-92.715
40973770,-0.692,1.157,1.998,306.25,40.67,-85.47
40973780,0.454,0.023,1.972,136.902,3.482,-78.155
40973790,0.079,0.178,1.924,37.345,-1.4,-68.162
40973800,0.121,-0.093,1.619,-60.095,-5.722,-50.837
40973810,0.049,-0.354,1.292,-142.38,-7.28,-45.22
40973820,-0.139,-0.53,0.917,-176.295,5.757,-53.392
40973830,0.109,-0.715,0.863,-205.922,25.27,-79.572
40973840,-0.093,-0.508,0.872,-233.012,41.755,-105.805
40973850,-0.074,-0.385,0.819,-269.062,44.117,-135.415
40973860,0.149,-0.551,0.858,-326.007,44.362,-154.577
40973870,0.342,-0.743,1.057,-363.405,51.205,-157.867
40973880,1.072,-1.331,1.037,-382.27,94.185,-129.027
40973890,1.534,-1.969,0.826,-391.72,212.38,-74.165
40973900,0.629,-1.998,0.094,-409.692,356.912,-15.19
40973910,1.06,-1.998,1.231,-397.355,469.017,45.272
40973920,0.343,-1.921,0.992,-286.125,510.527,29.557
40973930,-0.524,-1.997,0.598,-90.895,413.28,-82.932
40973940,-0.531,-1.998,0.011,90.072,245.682,-182.385
40973950,-1.589,-1.303,-0.035,291.812,99.155,-225.732
40973960,-1.989,-0.345,-0.402,398.055,-5.565,-211.47
40973970,-1.998,0.067,-0.824,414.26,-106.295,-144.06
40973980,-1.655,0.162,-1.354,360.71,-167.737,-59.5
40973990,-1.161,0.295,-1.667,294.07,-177.432,19.022
40974000,-1.016,0.405,-1.496,234.097,-147.665,97.965
40974010,-1.177,0.498,-1.09,154.822,-119.105,169.207
40974020,-1.222,0.378,-0.643,43.417,-130.112,224.647
40974030,-0.947,-0.123,-0.293,-63.682,-162.522,270.41
40974030,-0.321,-0.495,-0.072,-114.852,-186.847,299.862
40974050,0.281,-0.533,0.17,-119.577,-189.84,304.377
40974050,0.572,-0.524,0.311,-111.597,-184.222,286.037
40974070,0.916,-0.525,0.368,-96.635,-167.457,258.51
40974070,1.34,-0.531,0.528,-80.797,-135.1,226.362
40974080,1.368,-0.636,0.657,-58.012,-94.745,168.91
40974090,1.106,-0.668,0.547,-14.735,-66.447,83.632
40974100,0.759,-0.526,0.354,36.4,-53.217,6.352
40974110,0.67,-0.297,-0.069,51.432,-45.797,-58.782
40974120,0.16,-0.196,-0.669,109.392,-27.422,-77.28
40974130,-0.032,0.177,-0.684,277.742,16.397,-121.345
40974140,-0.476,0.467,-0.913,173.495,-2.625,-130.795
40974150,-0.25,-0.972,0.789,41.632,-45.097,-106.732
40974160,0.45,-1.998,-0.3,-44.992,144.2,47.145
40974170,-0.304,0.738,-1.081,506.852,-244.51,-198.782
40974180,1.616,1.997,1.998,412.247,230.247,-92.242
40974190,-0.545,-0.588,-0.606,132.51,11.882,66.045
40974200,-0.342,-1.958,1.146,200.76,46.445,16.905
40974210,-0.215,0.816,1.747,305.095,56.507,7.175
40974220,-0.931,0.796,1.888,178.692,33.25,-7.91
40974230,-0.455,-0.706,1.337,34.685,8.207,-44.362
40974240,-0.035,-0.048,1.419,9.485,9.66,-85.54
40974250,0.265,-0.409,1.035,-52.885,5.057,-78.855
40974260,0.209,-0.444,0.905,-71.19,-0.21,-53.165
40974270,0.204,-0.589,0.777,-79.642,-10.902,-25.62
40974280,0.108,-0.526,0.857,-69.895,-17.675,-5.547
40974290,0.063,-0.479,0.924,-72.432,-23.94,8.785
40974300,-0.005,-0.483,0.951,-78.137,-28.577,16.012
40974310,0.002,-0.495,0.964,-88.2,-29.75,18.025
40974320,0.046,-0.441,0.988,-96.985,-28.945,18.48
40974330,0.055,-0.545,0.975,-112.507,-25.707,19.057
40974340,0.15,-0.442,1.039,-124.32,-17.412,18.48
40974350,0.155,-0.403,1.057,-151.62,-2.887,17.097
40974360,0.172,-0.33,1.076,-185.902,11.147,10.64
40974370,0.051,-0.351,1.107,-229.827,18.27,-3.167
40974380,0.13,-0.44,1.037,-273.98,15.522,-22.015
40974390,0.27,-0.731,1.039,-315.385,22.347,-26.075
40974400,0.436,-1.113,1.161,-337.172,46.007,-7.507
40974410,0.708,-1.655,1.249,-349.492,99.137,27.02
40974420,0.507,-1.994,1.294,-345.205,181.265,72.03
40974420,-0.389,-1.721,0.969,-302.225,216.755,109.97
40974440,-0.29,-1.274,1.257,-247.047,141.522,93.432
40974440,-0.645,-1.905,0.886,-210.892,6.212,61.565
40974460,0.292,-1.56,0.407,-117.197,-89.67,2.152
40974460,-0.121,-0.862,0.208,35.717,-131.582,-63.507
40974480,-0.235,-0.188,0.156,141.295,-109.515,-89.67
40974480,-0.301,0.341,0.071,181.895,-86.45,-84.77
40974500,-0.499,0.629,-0.043,189.157,-54.792,-57.54
40974500,-0.553,0.684,-0.18,176.557,-24.692,-25.602
40974510,-0.484,0.585,-0.201,150.045,-14.35,1.872
40974520,-0.41,0.346,-0.1,107.905,-16.87,33.425
40974530,-0.426,-0.039,-0.005,70.472,-28.455,69.457
40974540,-0.373,-0.265,0.125,47.39,-42.595,97.23
40974550,-0.293,-0.342,0.144,28.122,-64.47,117.11
40974560,-0.175,-0.312,0.129,18.13,-86.432,129.92
40974570,-0.033,-0.176,0.092,22.207,-102.83,131.442
40974580,0.171,-0.065,0.079,30.205,-105.717,126.822
40974590,0.345,-0.233,-0.001,29.995,-90.947,128.03
40974600,0.481,-0.335,-0.333,76.002,-52.097,112.84
40974610,0.414,-0.139,-0.646,142.625,-18.007,79.135
40974620,0.378,0.236,-0.892,164.867,-3.395,28.42
40974630,0.431,0.252,-1.126,96.39,-5.285,-17.237
40974640,-0.84,-1.298,-1.439,38.237,-63.28,-68.25
40974650,-0.686,-1.998,0.793,-78.032,-118.527,-57.715
40974660,1.998,-0.487,-1.255,301.7,-67.392,95.55
40974670,-0.491,1.997,1.995,533.242,137.217,122.307
40974680,-1.998,1.153,1.656,292.67,45.01,17.71
40974690,0.163,-1.944,0.855,219.187,-48.825,-43.312
40974700,-0.97,0.251,1.758,342.212,-45.272,-131.792
40974710,0.927,1.191,1.972,236.18,-52.92,-128.222
40974720,0.834,-0.08,1.684,20.51,-24.01,-92.732
40974730,0.499,0.044,1.458,-55.685,0.84,-33.477
40974740,0.04,-0.337,1.106,-118.737,-1.067,9.922
40974750,-0.167,-0.669,0.793,-138.827,-5.95,19.442
40974760,-0.101,-0.597,0.924,-134.872,1.4,6.947
40974760,-0.074,-0.439,1.07,-145.302,14.962,-5.687
40974780,0.099,-0.386,1.151,-173.845,30.625,-16.467
40974780,0.155,-0.427,0.995,-209.405,57.242,-23.852
40974800,0.249,-0.573,0.982,-236.355,98.14,-27.702
40974800,0.008,-0.363,0.988,-243.81,136.78,-35
40974820,0.164,-0.432,0.889,-291.392,152.53,-55.16
40974820,0.904,-1.291,1.076,-357.157,208.145,-44.73
40974830,1.304,-1.986,1.374,-380.03,328.982,32.707
40974840,1.501,-1.998,1.223,-366.415,479.447,107.187
40974850,-0.299,-1.998,0.32,-289.327,491.645,119.595
40974860,0.158,-1.998,0.792,-202.282,369.425,36.295
40974870,-0.358,-1.998,0.63,-66.22,180.127,-3.202
40974880,-0.291,-1.702,0.117,133.77,-14.42,-67.795
40974890,-0.075,-0.791,-0.101,237.335,-163.905,-108.937
40974900,0.174,-0.565,-0.419,238.262,-249.34,-129.762
40974910,0.422,-0.459,-0.725,220.185,-258.632,-152.407
40974920,0.445,-0.163,-0.773,212.187,-218.575,-150.78
40974930,0.327,0.136,-0.482,196.035,-164.062,-125.387
40974940,0.122,0.253,-0.286,131.425,-119.682,-96.985
40974950,-0.06,0.082,-0.099,62.947,-77.787,-53.777
40974960,-0.205,-0.076,0.162,29.085,-39.077,-18.165
40974970,-0.558,-0.034,0.326,24.64,-35.63,-1.015
40974980,-0.828,0.229,0.458,33.862,-67.2,5.022
40974990,-0.727,0.46,0.525,37.87,-113.977,5.967
40975000,-0.359,0.484,0.484,34.807,-156.362,10.15
40975010,0.033,0.406,0.373,35.98,-178.867,16.502
40975020,0.373,0.287,0.23,38.902,-173.39,13.685
40975030,0.676,0.25,0.065,40.775,-143.92,3.167
40975040,0.688,0.252,-0.156,46.76,-105.577,-15.435
40975050,0.477,0.329,-0.373,46.2,-76.23,-53.165
40975060,0.261,0.539,-0.624,34.037,-59.71,-90.597
40975070,-0.088,1.111,-0.538,-2.992,-49.175,-111.457
40975080,-0.291,0.607,-0.665,-74.095,-52.692,-118.615
40975090,-0.695,-1.841,1.092,-50.347,10.027,6.055
40975100,-1.954,-1.998,-1.236,65.8,210.017,458.097
40975110,1.841,0.929,-0.969,547.942,-161.647,176.837
40975120,-1.969,1.934,1.998,525.385,115.237,124.74
40975130,-0.302,-1.648,0.868,154.752,-63.385,86.887
40975140,-1.799,0.365,1.56,338.31,-37.152,-66.955
40975150,0.845,1.127,1.859,250.6,-55.755,-156.012
40975160,0.871,0.64,1.74,-34.23,-40.197,-106.662
40975170,-0.028,-0.082,1.477,-136.797,-17.955,-54.145
40975170,0.102,-0.661,0.819,-198.782,-48.317,-16.397
40975190,0.144,-0.549,0.736,-165.55,-49.752,-7.612
40975190,0.34,-0.719,0.877,-169.855,-33.897,-6.615
40975210,0.205,-0.281,1.209,-178.062,-5.407,-16.222
40975210,0.383,-0.257,1.124,-212.625,16.047,-13.93
40975230,0.411,-0.583,0.789,-239.172,39.095,0
40975230,0.64,-0.452,0.888,-233.45,59.552,-1.54
40975250,0.14,-0.399,0.913,-246.295,70.455,-1.837
40975250,0.141,-0.529,1.032,-278.32,67.182,-4.13
40975260,0.154,-0.9,1.14,-301.997,65.065,12.425
40975270,0.114,-1.18,1.225,-303.17,77.017,45.535
40975280,0.156,-1.732,0.376,-300.37,68.897,68.582
40975290,1.049,-1.895,0.924,-281.4,9.782,48.632
40975300,-0.433,-1.062,0.68,-198.765,16.467,30.257
40975310,-0.574,-1.214,0.456,-144.042,-34.93,34.335
40975320,0.629,-1.514,0.141,-99.907,-117.145,40.425
40975330,0.418,-1.12,0.549,-6.72,-156.082,-15.435
40975340,-0.048,-1.006,0.235,78.067,-154.192,-42.455
40975350,-0.221,-0.78,-0.095,142.555,-166.827,-31.57
40975360,0,-0.435,-0.187,213.045,-148.452,-15.225
40975370,0.191,-0.21,-0.284,233.87,-125.51,3.255
40975380,0.115,-0.131,-0.49,216.002,-107.17,4.62
40975390,0.009,-0.058,-0.63,202.807,-81.515,3.395
40975400,-0.009,0.116,-0.692,181.562,-58.607,-3.5
40975410,-0.127,0.302,-0.665,135.52,-59.675,-20.352
40975420,-0.26,0.258,-0.398,83.09,-70.56,-35.805
40975430,-0.333,0.06,-0.287,20.51,-81.812,-44.887
40975440,-0.37,-0.015,-0.274,-22.137,-85.347,-39.62
40975450,-0.449,0.138,-0.289,-45.815,-74.042,-22.82
40975460,-0.602,0.413,-0.441,-69.002,-69.02,-5.215
40975470,-0.817,0.729,-0.714,-90.265,-73.412,4.795
40975480,1.534,-1.101,1.369,-151.025,-15.54,-34.947
40975490,-0.079,-1.998,-0.208,65.625,361.182,257.74
40975500,-0.34,-0.743,-1.996,509.67,-63.577,143.15
40975510,0.569,1.997,1.713,554.837,221.69,-25.06
40975510,-1.998,0.101,1.788,338.765,96.477,21.052
40975530,0.389,-1.627,1.363,247.625,30.292,-11.725
40975530,-1.162,1.08,1.832,388.692,38.5,-67.182
40975550,0.218,0.78,1.985,219.1,-3.36,-74.567
40975550,0.45,0.451,1.853,39.007,-21,-44.87
40975570,-0.109,0.122,1.578,-64.085,0.315,-27.055
40975570,-0.043,-0.496,1.185,-146.965,5.915,-22.382
40975580,0.09,-0.329,1.13,-164.43,16.187,-34.405
40975590,0.21,-0.374,1.22,-193.13,26.67,-36.54
40975600,0.253,-0.36,1.201,-219.765,32.69,-31.517
40975610,0.376,-0.389,1.057,-246.75,39.742,-21.997
40975620,0.012,-0.687,0.62,-267.54,53.305,-19.057
40975630,0.119,-0.848,0.836,-280.612,34.737,-44.065
40975640,-0.251,-0.715,1.001,-257.302,16.765,-59.78
40975650,-0.101,-0.591,0.918,-243.285,-8.697,-65.24
40975660,0.472,-1.095,0.513,-260.26,4.165,-52.955
40975670,0.255,-1.18,0.751,-243.372,58.747,1.365
40975680,0.315,-1.716,0.525,-223.37,103.127,24.867
40975690,1.365,-1.977,0.829,-198.747,63.262,-27.335
40975700,1.844,-1.998,0.428,-132.125,23.747,-86.695
40975710,1.882,-1.68,0.481,21.315,112.805,-104.3
40975720,-0.206,-1.147,0.129,149.205,91.227,-185.255
40975730,-1.568,-0.405,-0.18,186.812,-33.005,-224.28
40975740,-1.803,0.196,-0.273,190.75,-145.302,-171.675
40975750,-1.264,0.258,-0.625,149.397,-206.325,-76.947
40975760,-0.535,0.268,-0.854,94.552,-216.615,34.23
40975770,-0.246,0.328,-0.981,65.03,-185.272,121.24
40975780,-0.356,0.571,-0.808,54.267,-141.96,175.735
40975790,-0.458,0.794,-0.488,12.705,-125.212,215.197
40975800,-0.237,0.797,-0.233,-77.105,-130.27,240.257
40975810,0.301,0.572,0.102,-164.062,-113.015,250.6
40975820,0.572,-0.07,-0.169,-216.755,-57.802,239.155
40975830,1.811,-1.724,1.331,-74.13,21.507,168.647
40975840,0.787,-1.556,1.84,192.132,130.06,152.285
40975850,0.071,-1.998,-0.058,50.347,323.977,214.34
40975860,0.437,-0.527,-1.165,335.352,162.995,179.13
40975870,-1.427,1.997,1.705,474.25,174.265,161.035
40975880,-1.998,-0.131,0.671,289.03,12.057,64.452
40975890,0.152,-1.922,1.138,218.82,-95.935,45.465
40975900,-1.446,-0.125,0.971,375.847,-91.577,-72.94
40975910,-0.247,0.481,1.481,346.08,-87.605,-154.857
40975920,0.308,-0.326,1.567,222.075,-82.18,-168.927
40975920,0.735,0.605,1.812,169.75,-56.892,-154.052
40975940,0.733,0.345,1.683,47.495,-42.595,-84.315
40975940,0.432,-0.064,1.383,-44.467,-29.645,-15.627
40975960,0.065,-0.339,1.078,-97.545,-22.102,15.172
40975960,-0.106,-0.564,0.912,-119.507,-13.405,15.102
40975980,-0.075,-0.501,0.997,-119.77,-1.837,-2.082
40975980,-0.017,-0.49,1.116,-133.927,13.352,-16.432
40976000,-0.019,-0.489,1.161,-154.822,22.12,-29.137
40976000,0.042,-0.485,0.968,-174.037,29.627,-38.675
40976010,0.148,-0.541,0.67,-192.657,46.865,-47.88
40976020,0.045,-0.79,0.765,-218.61,65.887,-66.325
40976030,-0.238,-1.213,0.898,-225.47,56.157,-88.847
40976040,-0.502,-0.906,0.976,-180.285,36.505,-106.82
40976050,-0.242,-0.941,1.469,-179.9,27.317,-108.815
40976060,-0.062,-1.513,1.201,-186.69,57.592,-80.447
40976070,0.259,-1.964,0.795,-150.867,69.86,-68.792
40976080,0.693,-1.998,0.974,-82.407,-6.282,-96.355
40976090,1.462,-1.974,0.574,42.157,-39.077,-141.662
40976100,-0.636,-1.113,-0.687,188.597,-56.612,-167.055
40976110,-1.998,-0.306,-0.72,219.292,-177.94,-252.507
40976120,-1.998,0.263,-0.498,125.632,-195.562,-198.205
40976130,-1.998,0.291,-0.24,24.815,-159.267,1.662
40976140,-1.998,-0.088,0.063,-61.005,-168.297,157.517
40976150,-1.989,-0.561,-0.072,-93.73,-178.447,276.552
40976160,-1.307,-0.652,-0.253,-48.685,-146.055,359.012
40976170,-0.351,-0.438,-0.169,16.66,-72.467,389.672
40976180,0.279,-0.283,0.114,44.38,9.94,403.34
40976190,0.921,-0.17,-0.321,10.657,78.155,390.145
40976200,1.899,-0.271,-0.091,-21.122,170.45,376.285
40976210,1.646,-0.593,0.194,-72.887,161.542,279.93
40976220,1.334,-0.684,0.054,-110.967,50.242,102.602
40976230,1.743,-0.421,0.096,-99.715,-12.442,1.61
40976240,1.794,-0.41,-0.177,-5.547,-26.267,-82.267
40976250,1.955,-1.869,1.963,128.59,-42.385,-182.49
40976260,-1.029,-1.998,-1.161,92.645,-16.415,-121.415
40976260,-0.024,0.64,0.545,463.19,-39.55,-54.11
40976280,1.356,1.997,1.856,375.707,25.042,48.475
40976280,-0.848,-0.446,1.24,180.39,-57.522,55.44
40976300,0.264,-1.835,0.85,99.155,-98.017,53.06
40976300,-0.44,0.997,1.759,250.53,-62.912,50.61
40976320,-0.725,0.15,1.576,115.955,-71.452,25.27
40976320,-0.247,-1.037,1.064,20.545,-67.375,-9.065
40976330,-0.253,0,1.244,51.8,-44.397,-45.465
40976340,0.314,-0.385,1.043,0.28,-37.257,-61.337
40976350,0.45,-0.383,1.001,-23.03,-20.982,-64.627
40976360,0.432,-0.38,0.955,-44.887,-4.357,-44.485
40976370,0.347,-0.457,0.907,-63.805,4.515,-17.22
40976380,0.269,-0.557,0.858,-70.49,9.642,6.982
40976390,0.266,-0.567,0.808,-67.585,12.897,26.477
40976400,0.233,-0.561,0.737,-58.835,13.562,41.825
40976410,0.318,-0.574,0.672,-47.127,16.695,54.687
40976420,0.289,-0.647,0.666,-38.955,28.315,67.497
40976430,0.108,-0.719,0.578,-31.657,40.53,75.985
40976440,-0.101,-0.616,0.633,-22.732,55.947,82.145
40976450,-0.4,-0.655,0.597,-18.83,58.94,83.055
40976460,-0.485,-0.568,0.639,-13.615,51.485,76.282
40976470,-0.296,-0.602,0.678,-5.25,50.75,65.467
40976480,-0.432,-0.735,0.627,0.63,50.032,49.91
40976490,-0.914,-0.779,0.561,19.005,31.972,30.905
40976500,-0.877,-0.703,0.599,43.82,1.067,6.93
40976510,-0.358,-0.727,0.561,65.24,-19.18,-18.987
40976520,-0.25,-0.734,0.563,85.085,-22.697,-45.902
40976530,-0.146,-0.615,0.661,106.295,-16.852,-64.312
40976540,0.099,-0.435,0.805,124.25,-14.7,-68.967
40976550,0.099,-0.365,0.918,130.41,-18.672,-59.395
40976560,0.08,-0.398,0.958,129.64,-31.167,-36.295
40976570,0.163,-0.494,0.953,122.097,-39.55,-7.595
40976580,-0.009,-0.462,0.932,116.375,-42.28,14.35
40976590,-0.147,-0.311,1.041,113.33,-42.892,22.155
40976600,-0.23,-0.338,1.081,99.295,-42.962,17.22
40976610,-0.187,-0.258,1.14,84.98,-37.817,4.375
40976620,0.059,-0.154,1.132,62.51,-29.522,-7.997
40976630,0.154,-0.191,1.069,31.202,-14.665,-9.8
40976640,0.108,-0.241,1.02,6.177,-1.05,-4.742
40976650,0.046,-0.314,0.986,-12.407,10.885,0.98
40976660,-0.015,-0.351,0.968,-23.537,17.867,3.797
40976670,-0.064,-0.38,0.946,-31.867,22.925,6.002
40976670,-0.114,-0.421,0.913,-36.47,23.117,7.682
40976680,-0.132,-0.438,0.887,-36.96,21.945,8.907
40976690,-0.145,-0.492,0.882,-35.122,17.762,9.292
40976700,-0.13,-0.459,0.821,-28.84,14.577,9.607
40976710,-0.129,-0.397,0.88,-18.567,10.692,8.627
40976720,-0.143,-0.474,0.837,-20.107,8.015,6.562
40976730,-0.159,-0.459,0.835,-12.477,4.497,2.835
40976740,-0.152,-0.48,0.829,-6.877,1.365,0.017
40976750,-0.155,-0.483,0.831,1.312,-2.887,-2.397
40976760,-0.149,-0.457,0.848,9.485,-6.212,-4.165
40976770,-0.155,-0.441,0.861,14.595,-10.342,-5.74
40976780,-0.138,-0.424,0.887,18.147,-13.492,-7.35
40976790,-0.1,-0.417,0.901,18.34,-16.012,-8.12
40976800,-0.065,-0.401,0.916,16.992,-16.205,-7.77
40976810,-0.04,-0.37,0.945,13.65,-14.997,-6.23
40976820,-0.028,-0.357,0.965,7.017,-11.725,-4.112
40976830,-0.036,-0.345,0.975,-1.75,-6.842,-2.205
40976840,-0.041,-0.35,0.979,-11.392,-1.575,-0.735
40976850,-0.069,-0.354,0.981,-21.647,3.395,0.332
40976860,-0.085,-0.366,0.985,-32.182,6.545,0.927
40976870,-0.097,-0.377,0.98,-42.175,9.152,0.927
40976880,-0.089,-0.388,0.97,-51.66,10.01,0.822
40976890,-0.07,-0.407,0.954,-60.34,11.095,1.382
40976900,-0.053,-0.426,0.944,-67.777,11.007,3.15
40976910,-0.038,-0.423,0.939,-74.987,12.18,6.597
40976920,-0.054,-0.429,0.946,-82.74,11.725,10.36
40976930,-0.08,-0.444,0.972,-90.72,11.042,14.577
40976940,-0.144,-0.382,1.003,-97.702,5.355,17.342
40976950,-0.215,-0.395,1.035,-111.02,-3.675,18.987
40976960,-0.287,-0.436,1.024,-123.182,-19.127,18.585
40976970,-0.291,-0.48,1.002,-129.342,-36.137,17.185
40976980,-0.302,-0.512,1.024,-129.307,-54.915,15.242
40976990,-0.22,-0.504,0.93,-126.647,-74.812,12.477
40977000,-0.149,-0.496,0.895,-122.885,-90.772,16.73
40977010,-0.232,-0.641,0.84,-117.442,-113.802,18.672
40977010,0.086,-0.348,0.494,-100.572,-139.3,22.137
40977030,0.347,-0.18,0.458,-86.782,-127.12,49.052
40977030,0.31,-0.728,0.37,-97.93,-105.14,60.76
40977050,0.232,-1.102,-0.017,-78.085,-84.945,57.54
40977050,0.164,-1.09,-0.182,-38.185,-46.252,65.87
40977070,0,-1.256,-0.166,-2.292,-10.29,66.92
40977070,-0.281,-1.548,-0.174,51.607,16.59,55.877
40977080,-0.663,-1.405,0.02,105.385,32.34,20.842
40977090,-0.729,-1.027,0.183,178.5,39.515,-37.327
40977100,-0.563,-0.776,0.661,228.637,54.162,-91.315
40977110,-0.533,-0.025,1.283,250.092,60.235,-133.175
40977120,-0.038,0.134,1.627,209.772,51.975,-152.967
40977130,0.393,0.101,1.654,143.465,35.525,-140.805
40977140,0.461,0.345,1.856,79.012,25.777,-101.657
40977150,0.537,0.209,1.74,-7.07,16.8,-49.542
40977160,0.267,0.011,1.602,-90.107,11.602,-4.235
40977170,-0.007,-0.198,1.343,-157.272,6.982,18.462
40977180,-0.244,-0.425,1.126,-197.68,3.517,16.152
40977190,-0.195,-0.567,1.083,-216.737,-1.855,-0.35
40977200,-0.199,-0.685,0.982,-231.507,11.182,-14.927
40977210,-0.554,-0.479,1.015,-261.52,5.985,-45.29
40977220,-0.652,-0.588,1.071,-312.182,-20.142,-92.96
40977230,-0.368,-1.029,1.117,-353.727,-31.36,-123.112
40977240,0.682,-1.586,1.145,-380.397,12.845,-113.977
40977250,1.381,-1.896,0.856,-389.725,190.522,-58.117
40977260,1.46,-1.998,0.767,-354.217,421.557,-25.602
40977270,-0.395,-1.901,-0.028,-236.25,442.54,-97.492
40977280,-0.333,-1.93,-0.661,-82.967,313.495,-171.972
40977290,0.014,-1.087,-0.305,42.035,197.715,-144.707
40977300,-0.546,-0.549,-0.022,133.822,89.547,-181.72
40977310,-1.187,0.132,-0.204,113.68,-7.63,-169.172
40977320,-1.075,0.42,-0.212,73.272,-58.852,-106.942
40977330,-0.792,0.503,-0.15,27.947,-69.37,-26.95
40977330,-0.567,0.462,0.007,-17.92,-68.53,37.345
40977350,-0.457,0.324,0.175,-54.705,-63.332,86.537
40977350,-0.413,0.152,0.353,-65.485,-64.96,124.582
40977370,-0.29,0.042,0.498,-62.44,-80.412,148.47
40977370,-0.148,-0.044,0.529,-53.497,-108.867,159.617
40977390,-0.011,-0.137,0.524,-34.772,-137.252,163.502
40977390,0.104,-0.082,0.454,-25.655,-162.12,164.482
40977410,0.267,-0.462,0.423,6.772,-173.722,154.227
40977410,0.368,-0.471,0.337,73.587,-175.017,136.412
40977420,0.548,-0.251,0.191,135.362,-162.207,115.64
40977430,0.655,-0.036,-0.068,168.14,-136.237,99.12
40977440,0.617,0.215,-0.306,177.887,-113.487,73.675
40977450,0.632,0.511,-0.342,154.385,-93.992,37.712
40977460,0.563,0.312,-0.265,101.675,-68.897,7.7
40977470,-0.841,-0.498,-0.977,107.87,-106.33,-26.932
40977480,-0.572,-1.723,1.998,140.84,-327.267,-82.6
40977490,1.287,-1.998,-0.555,31.202,63.91,240.345
40977500,1.739,1.319,0.098,507.937,-80.92,14.367
40977510,-1.48,1.898,1.669,398.177,127.697,97.825
40977520,-1.412,-1.598,1.103,96.407,-42.105,91.927
40977530,1.138,-1.727,0.43,320.32,-43.96,21.297
40977540,-1.657,1.562,1.822,464.205,-17.815,-65.957
40977550,-0.137,0.33,1.932,262.045,-52.045,-105.892
40977560,0.839,0.093,1.823,125.072,-58.03,-107.957
40977570,0.507,0.701,1.865,42.77,-29.347,-68.32
40977580,0.089,-0.153,1.41,-100.012,-14.14,-28.98
40977590,-0.012,-0.443,1.03,-147.63,-8.032,-17.587
40977600,0.105,-0.624,0.838,-159.442,-2.642,-22.61
40977610,0.316,-0.42,1.005,-154.175,11.672,-27.58
40977620,0.37,-0.38,1.118,-173.022,28.07,-20.422
40977630,0.358,-0.328,1.077,-194.267,40.845,-11.27
40977640,0.396,-0.581,0.863,-220.955,60.095,-8.715
40977650,0.176,-0.73,0.829,-241.517,71.172,-35.262
40977660,0.083,-0.672,0.814,-271.18,76.335,-70.63
40977670,-0.213,-0.666,0.734,-303.835,86.52,-99.732
40977680,-0.169,-0.957,0.82,-311.57,112.542,-112.087
40977690,0.378,-1.166,0.725,-314.352,158.69,-97.895
40977700,0.976,-1.589,0.232,-308.367,216.807,-77.42
40977710,1.513,-1.96,0.817,-328.352,216.247,-116.777
40977720,-0.519,-1.407,0.801,-266.612,275.065,-120.977
40977730,0.306,-1.671,1.163,-223.195,312.042,-65.38
40977740,1.665,-1.852,1.347,-175.402,286.947,-85.82
40977750,0.54,-1.998,0.564,-26.11,208.95,-251.667
40977760,-1.886,-1.812,0.167,145.215,89.197,-358.277
40977760,-1.998,-0.744,0.09,277.55,-21.332,-382.077
40977780,-1.96,-0.128,-0.421,335.317,-99.977,-306.145
40977780,-1.621,0.018,-1.102,337.435,-127.382,-167.825
40977800,-1.299,0.196,-1.518,329.98,-100.222,-55.685
40977800,-1.148,0.482,-1.581,314.142,-42.77,57.19
40977820,-1.273,0.649,-1.339,251.772,-24.132,173.46
40977820,-1.324,0.527,-0.809,131.232,-55.247,271.32
40977830,-0.994,-0.105,-0.359,-16.59,-114.292,334.985
40977840,-0.591,-0.93,-0.053,-104.58,-176.382,366.117
40977850,-0.207,-1.195,0.255,-114.695,-220.745,370.002
40977860,0.396,-0.896,0.155,-84.56,-243.862,368.76
40977870,1.571,-0.619,-0.007,-52.745,-211.82,384.895
40977880,1.998,-0.744,-0.027,-50.872,-131.46,363.825
40977890,1.965,-0.916,-0.333,-95.742,-53.427,266.945
40977900,1.583,-1.107,0.911,110.792,-26.18,81.13
40977910,1.998,-1.971,1.998,37.45,0.297,-110.495
40977920,-0.91,-1.998,-0.477,67.322,112.385,-62.982
40977930,-1.258,-0.182,-1.61,426.457,-179.34,-107.87
40977940,1.799,1.994,1.673,415.555,95.112,-20.895
40977950,-0.205,-0.55,1.324,198.8,92.26,-4.462
40977960,-0.725,-1.727,0.93,215.617,-7.595,-85.12
40977970,0.592,0.835,1.845,306.512,16.415,-59.937
40977980,-0.158,0.259,1.855,190.505,-4.567,-44.205
40977990,0.414,-0.243,1.594,78.995,-21.07,-14.175
40978000,-0.19,0.031,1.532,24.097,-20.842,4.987
40978010,-0.191,-0.495,1.076,-47.53,-24.447,5.372
40978020,-0.046,-0.551,0.815,-60.585,-25.007,-7.822
40978030,0.195,-0.705,0.636,-55.492,-18.182,-12.11
40978040,0.243,-0.576,0.748,-39.007,-4.305,-8.855
40978050,0.29,-0.468,0.895,-32.585,7.157,0.857
40978060,0.315,-0.429,0.987,-40.88,15.627,15.627
40978070,0.158,-0.436,1.006,-56.507,25.62,30.082
40978080,0.127,-0.485,0.968,-71.33,33.11,37.17
40978080,0.172,-0.555,0.925,-82.372,45.377,36.382
40978100,0.27,-0.612,0.941,-89.582,62.405,30.31
40978100,0.367,-0.662,0.965,-97.755,87.57,24.867
40978120,0.272,-0.695,0.939,-105.385,115.412,26.32
40978120,-0.002,-0.707,1.006,-102.9,136.657,37.397
40978140,0.012,-0.709,1.318,-102.847,162.347,60.777
40978140,-0.068,-1.166,1.357,-117.74,191.66,86.012
40978160,-0.674,-1.928,1.959,-118.702,143.972,89.967
40978160,1.019,-1.998,1.998,-102.357,-28.682,4.112
40978170,1.998,-1.998,-0.262,138.617,-108.132,-125.055
40978180,0.995,-0.751,-1.876,405.212,-105.665,-203.035
40978190,-0.161,0.421,-1.404,381.885,-106.645,-233.765
40978200,-1.404,-0.022,-1.968,208.302,-118.09,-188.772
40978210,-1.188,-0.432,-1.703,68.617,-126.14,-127.242
40978220,-0.002,-0.398,-0.905,-17.832,-74.9,-54.845
40978230,0.03,-0.621,-0.158,-75.792,-58.17,21.875
40978240,-0.419,-0.71,0.129,-101.745,-103.285,58.45
40978250,-0.034,-0.387,0.226,-102.112,-153.44,79.52
40978260,0.582,-0.127,0.285,-129.395,-192.307,101.395
40978270,0.742,0,0.146,-181.895,-209.895,106.067
40978280,0.399,0.45,0.022,-220.08,-221.532,96.495
40978290,-0.054,1.005,0.509,-249.48,-239.522,73.832
40978300,1.515,-0.127,1.788,-305.777,-41.02,96.092
40978310,-1.664,1.011,1.564,163.257,278.25,277.69
40978320,-1.696,1.239,1.203,471.957,-64.137,257.092
40978330,1.211,-1.998,-1.433,39.585,-64.715,281.925
40978340,-0.742,0.097,0.208,337.89,50.89,50.102
40978350,-1.267,1.23,1.831,462.105,40.145,-92.872
40978360,0.033,-1.695,0.938,140.402,-47.67,-156.292
40978370,0.635,1.914,1.998,337.47,-43.54,-232.225
40978380,1.59,0.7,1.622,76.65,-55.422,-123.182
40978390,0.371,0.528,1.469,-33.915,-13.23,-28.84
40978400,-0.177,-0.4,1.249,-126.822,3.937,4.375
40978410,-0.055,-0.529,1.04,-157.57,18.532,-24.955
40978420,-0.019,-0.401,1.26,-166.722,33.04,-43.277
40978430,-0.021,-0.364,1.289,-210.98,45.29,-64.645
40978440,0.223,-0.382,1.198,-244.492,57.365,-74.41
40978450,0.391,-0.553,0.883,-268.94,81.725,-67.252
40978460,0.13,-0.54,0.998,-267.26,76.79,-64.015
40978470,0.057,-0.529,0.864,-253.365,32.427,-79.8
40978480,-0.268,-0.61,0.941,-240.87,-6.965,-80.92
40978490,-0.008,-0.855,0.962,-247.922,-28.507,-75.862
40978500,0.503,-1.143,0.988,-240.765,-5.53,-57.26
40978510,0.224,-1.455,1.042,-219.467,36.645,-34.947
40978510,-0.099,-1.715,1.049,-172.532,40.932,-30.625
40978530,1.732,-1.998,1.179,-117.267,2.24,-60.532
40978530,1.803,-1.334,0.456,35.192,64.96,-155.172
40978550,-1.037,-0.209,-0.308,194.32,15.312,-343.07
40978550,-1.998,0.502,-0.909,180.617,-31.78,-384.685
40978570,-1.998,1.11,-1.623,123.375,-8.942,-246.225
40978570,-1.998,1.696,-1.082,35.822,24.85,-57.592
40978580,-1.998,1.074,-0.371,-125.877,22.54,166.81
40978590,-1.718,-0.592,-0.192,-200.935,9.817,340.725
40978600,-0.479,-0.971,-0.095,-105.997,36.067,393.312
40978610,0.788,-0.008,0.136,-15.365,67.672,359.957
40978620,-0.047,0.154,0.164,-27.072,70.455,281.75
40978630,1.998,-1.983,1.757,-120.242,114.695,162.89
40978640,-0.132,-1.95,-1.93,39.952,100.52,51.59
40978650,-1.998,1.748,0.809,420.21,66.64,35.367
40978660,-1.681,1.632,1.475,230.16,94.605,120.68
40978670,-0.139,-1.624,0.889,122.902,-87.955,218.382
40978680,0.074,-1.831,-0.062,188.65,-75.18,77.105
40978690,-1.204,-0.015,0.759,335.247,-53.97,16.292
40978700,-0.867,-0.115,1.212,283.622,-79.8,-3.15
40978710,-1.055,-0.576,1.099,258.895,-117.407,-44.625
